X[s],"Avanti sensor 1: EMG 1",X[s],"Avanti sensor 1: ACC.X 1",X[s],"Avanti sensor 1: ACC.Y 1",X[s],"Avanti sensor 1: ACC.Z 1",X[s],"Avanti sensor 2: EMG 2",X[s],"Avanti sensor 2: ACC.X 2",X[s],"Avanti sensor 2: ACC.Y 2",X[s],"Avanti sensor 2: ACC.Z 2",X[s],"Avanti sensor 2: GYRO.X 2",X[s],"Avanti sensor 2: GYRO.Y 2",X[s],"Avanti sensor 2: GYRO.Z 2",X[s],"Avanti sensor 3: EMG 3",X[s],"Avanti sensor 3: ACC.X 3",X[s],"Avanti sensor 3: ACC.Y 3",X[s],"Avanti sensor 3: ACC.Z 3",X[s],"Avanti sensor 3: GYRO.X 3",X[s],"Avanti sensor 3: GYRO.Y 3",X[s],"Avanti sensor 3: GYRO.Z 3",X[s],"Avanti sensor 4: EMG 4",X[s],"Avanti sensor 4: ACC.X 4",X[s],"Avanti sensor 4: ACC.Y 4",X[s],"Avanti sensor 4: ACC.Z 4",X[s],"Avanti sensor 4: GYRO.X 4",X[s],"Avanti sensor 4: GYRO.Y 4",X[s],"Avanti sensor 4: GYRO.Z 4",X[s],"Snap-Lead sensor 5: EMG 5",X[s],"Snap-Lead sensor 5: ACC.X 5",X[s],"Snap-Lead sensor 5: ACC.Y 5",X[s],"Snap-Lead sensor 5: ACC.Z 5",X[s],"Snap-Lead sensor 5: GYRO.X 5",X[s],"Snap-Lead sensor 5: GYRO.Y 5",X[s],"Snap-Lead sensor 5: GYRO.Z 5",X[s],"Snap-Lead sensor 6: EMG 6",X[s],"Snap-Lead sensor 6: ACC.X 6",X[s],"Snap-Lead sensor 6: ACC.Y 6",X[s],"Snap-Lead sensor 6: ACC.Z 6",X[s],"Snap-Lead sensor 6: GYRO.X 6",X[s],"Snap-Lead sensor 6: GYRO.Y 6",X[s],"Snap-Lead sensor 6: GYRO.Z 6",X[s],"Snap-Lead sensor 7: EMG 7",X[s],"Snap-Lead sensor 7: ACC.X 7",X[s],"Snap-Lead sensor 7: ACC.Y 7",X[s],"Snap-Lead sensor 7: ACC.Z 7",X[s],"Snap-Lead sensor 7: GYRO.X 7",X[s],"Snap-Lead sensor 7: GYRO.Y 7",X[s],"Snap-Lead sensor 7: GYRO.Z 7",X[s],"Snap-Lead sensor 8: EMG 8",X[s],"Snap-Lead sensor 8: ACC.X 8",X[s],"Snap-Lead sensor 8: ACC.Y 8",X[s],"Snap-Lead sensor 8: ACC.Z 8",X[s],"Snap-Lead sensor 8: GYRO.X 8",X[s],"Snap-Lead sensor 8: GYRO.Y 8",X[s],"Snap-Lead sensor 8: GYRO.Z 8",X[s],"FSR adapter 9: FSR.A 9",X[s],"FSR adapter 9: FSR.B 9",X[s],"FSR adapter 9: FSR.C 9",X[s],"FSR adapter 9: FSR.D 9",X[s],"FSR adapter 10: FSR.A 10",X[s],"FSR adapter 10: FSR.B 10",X[s],"FSR adapter 10: FSR.C 10",X[s],"FSR adapter 10: FSR.D 10",X[s],"EKG sensor 11: EKG 11",X[s],"EKG sensor 11: ACC.X 11",X[s],"EKG sensor 11: ACC.Y 11",X[s],"EKG sensor 11: ACC.Z 11",X[s],"EKG sensor 11: GYRO.X 11",X[s],"EKG sensor 11: GYRO.Y 11",X[s],"EKG sensor 11: GYRO.Z 11",X[s],"Analog Input adapter 12: Analog 12"
0.000000,0,0.000000,0,0.000000,0,0.000000,0,0.000000,0,0.000000,0,0.000000,0,0.000000,0,0.000000,0,0.000000,0,0.000000,0,0.000000,0,0.000000,0,0.000000,0,0.000000,0,0.000000,0,0.000000,0,0.000000,0,0.000000,0,0.000000,0,0.000000,0,0.000000,0,0.000000,0,0.000000,0,0.000000,0,0.000000,0,0.000000,0,0.000000,0,0.000000,0,0.000000,0,0.000000,0,0.000000,0,0.000000,0,0.000000,0,0.000000,0,0.000000,0,0.000000,0,0.000000,0,0.000000,0,0.000000,0,0.000000,0,0.000000,0,0.000000,0,0.000000,0,0.000000,0,0.000000,0,0.000000,0,0.000000,0,0.000000,0,0.000000,0,0.000000,0,0.000000,0,0.000000,0,0.000000,0,0.000000,0,0.000000,0,0.000000,0,0.000000,0,0.000000,0,0.000000,0,0.000000,0,0.000000,0,0.000000,0,0.000000,0,0.000000,0,0.000000,0,0.000000,0,0.000000,0,0.000000,0
0.0005192308,0,0.00675,0,0.00675,0,0.00675,0,0.0007941176,0,0.00675,0,0.00675,0,0.00675,0,0.00675,0,0.00675,0,0.00675,0,0.0007941176,0,0.00675,0,0.00675,0,0.00675,0,0.00675,0,0.00675,0,0.00675,0,0.0007941176,0,0.00675,0,0.00675,0,0.00675,0,0.00675,0,0.00675,0,0.00675,0,0.0007941176,0,0.00675,0,0.00675,0,0.00675,0,0.00675,0,0.00675,0,0.00675,0,0.0007941176,0,0.00675,0,0.00675,0,0.00675,0,0.00675,0,0.00675,0,0.00675,0,0.0007941176,0,0.00675,0,0.00675,0,0.00675,0,0.00675,0,0.00675,0,0.00675,0,0.0007941176,0,0.00675,0,0.00675,0,0.00675,0,0.00675,0,0.00675,0,0.00675,0,0.001928571,0,0.001928571,0,0.001928571,0,0.001928571,0,0.001928571,0,0.001928571,0,0.001928571,0,0.001928571,0,0.0007941176,0,0.00675,0,0.00675,0,0.00675,0,0.00675,0,0.00675,0,0.00675,0,0.00045,0
0.001038462,0,0.0135,0,0.0135,0,0.0135,0,0.001588235,0,0.0135,0,0.0135,0,0.0135,0,0.0135,0,0.0135,0,0.0135,0,0.001588235,0,0.0135,0,0.0135,0,0.0135,0,0.0135,0,0.0135,0,0.0135,0,0.001588235,0,0.0135,0,0.0135,0,0.0135,0,0.0135,0,0.0135,0,0.0135,0,0.001588235,0,0.0135,0,0.0135,0,0.0135,0,0.0135,0,0.0135,0,0.0135,0,0.001588235,0,0.0135,0,0.0135,0,0.0135,0,0.0135,0,0.0135,0,0.0135,0,0.001588235,0,0.0135,0,0.0135,0,0.0135,0,0.0135,0,0.0135,0,0.0135,0,0.001588235,0,0.0135,0,0.0135,0,0.0135,0,0.0135,0,0.0135,0,0.0135,0,0.003857143,0,0.003857143,0,0.003857143,0,0.003857143,0,0.003857143,0,0.003857143,0,0.003857143,0,0.003857143,0,0.001588235,0,0.0135,0,0.0135,0,0.0135,0,0.0135,0,0.0135,0,0.0135,0,0.0009,0
0.001557692,0,0.02025,0,0.02025,0,0.02025,0,0.002382353,0,0.02025,0,0.02025,0,0.02025,0,0.02025,0,0.02025,0,0.02025,0,0.002382353,0,0.02025,0,0.02025,0,0.02025,0,0.02025,0,0.02025,0,0.02025,0,0.002382353,0,0.02025,0,0.02025,0,0.02025,0,0.02025,0,0.02025,0,0.02025,0,0.002382353,0,0.02025,0,0.02025,0,0.02025,0,0.02025,0,0.02025,0,0.02025,0,0.002382353,0,0.02025,0,0.02025,0,0.02025,0,0.02025,0,0.02025,0,0.02025,0,0.002382353,0,0.02025,0,0.02025,0,0.02025,0,0.02025,0,0.02025,0,0.02025,0,0.002382353,0,0.02025,0,0.02025,0,0.02025,0,0.02025,0,0.02025,0,0.02025,0,0.005785714,0,0.005785714,0,0.005785714,0,0.005785714,0,0.005785714,0,0.005785714,0,0.005785714,0,0.005785714,0,0.002382353,0,0.02025,0,0.02025,0,0.02025,0,0.02025,0,0.02025,0,0.02025,0,0.00135,0
0.002076923,0,0.027,0,0.027,0,0.027,0,0.003176471,0,0.027,0,0.027,0,0.027,0,0.027,0,0.027,0,0.027,0,0.003176471,0,0.027,0,0.027,0,0.027,0,0.027,0,0.027,0,0.027,0,0.003176471,0,0.027,0,0.027,0,0.027,0,0.027,0,0.027,0,0.027,0,0.003176471,0,0.027,0,0.027,0,0.027,0,0.027,0,0.027,0,0.027,0,0.003176471,0,0.027,0,0.027,0,0.027,0,0.027,0,0.027,0,0.027,0,0.003176471,0,0.027,0,0.027,0,0.027,0,0.027,0,0.027,0,0.027,0,0.003176471,0,0.027,0,0.027,0,0.027,0,0.027,0,0.027,0,0.027,0,0.007714286,0,0.007714286,0,0.007714286,0,0.007714286,0,0.007714286,0,0.007714286,0,0.007714286,0,0.007714286,0,0.003176471,0,0.027,0,0.027,0,0.027,0,0.027,0,0.027,0,0.027,0,0.0018,0
0.002596154,0,0.03375,0,0.03375,0,0.03375,0,0.003970588,0,0.03375,0,0.03375,0,0.03375,0,0.03375,0,0.03375,0,0.03375,0,0.003970588,0,0.03375,0,0.03375,0,0.03375,0,0.03375,0,0.03375,0,0.03375,0,0.003970588,0,0.03375,0,0.03375,0,0.03375,0,0.03375,0,0.03375,0,0.03375,0,0.003970588,0,0.03375,0,0.03375,0,0.03375,0,0.03375,0,0.03375,0,0.03375,0,0.003970588,0,0.03375,0,0.03375,0,0.03375,0,0.03375,0,0.03375,0,0.03375,0,0.003970588,0,0.03375,0,0.03375,0,0.03375,0,0.03375,0,0.03375,0,0.03375,0,0.003970588,0,0.03375,0,0.03375,0,0.03375,0,0.03375,0,0.03375,0,0.03375,0,0.009642858,0,0.009642858,0,0.009642858,0,0.009642858,0,0.009642858,0,0.009642858,0,0.009642858,0,0.009642858,0,0.003970588,0,0.03375,0,0.03375,0,0.03375,0,0.03375,0,0.03375,0,0.03375,0,0.00225,0
0.003115385,0,0.0405,0,0.0405,0,0.0405,0,0.004764706,0,0.0405,0,0.0405,0,0.0405,0,0.0405,0,0.0405,0,0.0405,0,0.004764706,0,0.0405,0,0.0405,0,0.0405,0,0.0405,0,0.0405,0,0.0405,0,0.004764706,0,0.0405,0,0.0405,0,0.0405,0,0.0405,0,0.0405,0,0.0405,0,0.004764706,0,0.0405,0,0.0405,0,0.0405,0,0.0405,0,0.0405,0,0.0405,0,0.004764706,0,0.0405,0,0.0405,0,0.0405,0,0.0405,0,0.0405,0,0.0405,0,0.004764706,0,0.0405,0,0.0405,0,0.0405,0,0.0405,0,0.0405,0,0.0405,0,0.004764706,0,0.0405,0,0.0405,0,0.0405,0,0.0405,0,0.0405,0,0.0405,0,0.01157143,0,0.01157143,0,0.01157143,0,0.01157143,0,0.01157143,0,0.01157143,0,0.01157143,0,0.01157143,0,0.004764706,0,0.0405,0,0.0405,0,0.0405,0,0.0405,0,0.0405,0,0.0405,0,0.0027,0
0.003634615,0,0.04725,0,0.04725,0,0.04725,0,0.005558823,0,0.04725,0,0.04725,0,0.04725,0,0.04725,0,0.04725,0,0.04725,0,0.005558823,0,0.04725,0,0.04725,0,0.04725,0,0.04725,0,0.04725,0,0.04725,0,0.005558823,0,0.04725,0,0.04725,0,0.04725,0,0.04725,0,0.04725,0,0.04725,0,0.005558823,0,0.04725,0,0.04725,0,0.04725,0,0.04725,0,0.04725,0,0.04725,0,0.005558823,0,0.04725,0,0.04725,0,0.04725,0,0.04725,0,0.04725,0,0.04725,0,0.005558823,0,0.04725,0,0.04725,0,0.04725,0,0.04725,0,0.04725,0,0.04725,0,0.005558823,0,0.04725,0,0.04725,0,0.04725,0,0.04725,0,0.04725,0,0.04725,0,0.0135,0,0.0135,0,0.0135,0,0.0135,0,0.0135,0,0.0135,0,0.0135,0,0.0135,0,0.005558823,0,0.04725,0,0.04725,0,0.04725,0,0.04725,0,0.04725,0,0.04725,0,0.00315,0
0.004153846,0,0.054,0,0.054,0,0.054,0,0.006352941,0,0.054,0,0.054,0,0.054,0,0.054,0,0.054,0,0.054,0,0.006352941,0,0.054,0,0.054,0,0.054,0,0.054,0,0.054,0,0.054,0,0.006352941,0,0.054,0,0.054,0,0.054,0,0.054,0,0.054,0,0.054,0,0.006352941,0,0.054,0,0.054,0,0.054,0,0.054,0,0.054,0,0.054,0,0.006352941,0,0.054,0,0.054,0,0.054,0,0.054,0,0.054,0,0.054,0,0.006352941,0,0.054,0,0.054,0,0.054,0,0.054,0,0.054,0,0.054,0,0.006352941,0,0.054,0,0.054,0,0.054,0,0.054,0,0.054,0,0.054,0,0.01542857,0,0.01542857,0,0.01542857,0,0.01542857,0,0.01542857,0,0.01542857,0,0.01542857,0,0.01542857,0,0.006352941,0,0.054,0,0.054,0,0.054,0,0.054,0,0.054,0,0.054,0,0.0036,0
0.004673077,0,0.06075,0,0.06075,0,0.06075,0,0.007147059,0,0.06075,0,0.06075,0,0.06075,0,0.06075,0,0.06075,0,0.06075,0,0.007147059,0,0.06075,0,0.06075,0,0.06075,0,0.06075,0,0.06075,0,0.06075,0,0.007147059,0,0.06075,0,0.06075,0,0.06075,0,0.06075,0,0.06075,0,0.06075,0,0.007147059,0,0.06075,0,0.06075,0,0.06075,0,0.06075,0,0.06075,0,0.06075,0,0.007147059,0,0.06075,0,0.06075,0,0.06075,0,0.06075,0,0.06075,0,0.06075,0,0.007147059,0,0.06075,0,0.06075,0,0.06075,0,0.06075,0,0.06075,0,0.06075,0,0.007147059,0,0.06075,0,0.06075,0,0.06075,0,0.06075,0,0.06075,0,0.06075,0,0.01735714,0,0.01735714,0,0.01735714,0,0.01735714,0,0.01735714,0,0.01735714,0,0.01735714,0,0.01735714,0,0.007147059,0,0.06075,0,0.06075,0,0.06075,0,0.06075,0,0.06075,0,0.06075,0,0.00405,0
0.005192308,0,0.0675,0,0.0675,0,0.0675,0,0.007941176,0,0.0675,0,0.0675,0,0.0675,0,0.0675,0,0.0675,0,0.0675,0,0.007941176,0,0.0675,0,0.0675,0,0.0675,0,0.0675,0,0.0675,0,0.0675,0,0.007941176,0,0.0675,0,0.0675,0,0.0675,0,0.0675,0,0.0675,0,0.0675,0,0.007941176,0,0.0675,0,0.0675,0,0.0675,0,0.0675,0,0.0675,0,0.0675,0,0.007941176,0,0.0675,0,0.0675,0,0.0675,0,0.0675,0,0.0675,0,0.0675,0,0.007941176,0,0.0675,0,0.0675,0,0.0675,0,0.0675,0,0.0675,0,0.0675,0,0.007941176,0,0.0675,0,0.0675,0,0.0675,0,0.0675,0,0.0675,0,0.0675,0,0.01928572,0,0.01928572,0,0.01928572,0,0.01928572,0,0.01928572,0,0.01928572,0,0.01928572,0,0.01928572,0,0.007941176,0,0.0675,0,0.0675,0,0.0675,0,0.0675,0,0.0675,0,0.0675,0,0.0045,0
0.005711539,0,0.07425,0,0.07425,0,0.07425,0,0.008735294,0,0.07425,0,0.07425,0,0.07425,0,0.07425,0,0.07425,0,0.07425,0,0.008735294,0,0.07425,0,0.07425,0,0.07425,0,0.07425,0,0.07425,0,0.07425,0,0.008735294,0,0.07425,0,0.07425,0,0.07425,0,0.07425,0,0.07425,0,0.07425,0,0.008735294,0,0.07425,0,0.07425,0,0.07425,0,0.07425,0,0.07425,0,0.07425,0,0.008735294,0,0.07425,0,0.07425,0,0.07425,0,0.07425,0,0.07425,0,0.07425,0,0.008735294,0,0.07425,0,0.07425,0,0.07425,0,0.07425,0,0.07425,0,0.07425,0,0.008735294,0,0.07425,0,0.07425,0,0.07425,0,0.07425,0,0.07425,0,0.07425,0,0.02121429,0,0.02121429,0,0.02121429,0,0.02121429,0,0.02121429,0,0.02121429,0,0.02121429,0,0.02121429,0,0.008735294,0,0.07425,0,0.07425,0,0.07425,0,0.07425,0,0.07425,0,0.07425,0,0.00495,0
0.006230769,0,0.081,0,0.081,0,0.081,0,0.009529412,0,0.081,0,0.081,0,0.081,0,0.081,0,0.081,0,0.081,0,0.009529412,0,0.081,0,0.081,0,0.081,0,0.081,0,0.081,0,0.081,0,0.009529412,0,0.081,0,0.081,0,0.081,0,0.081,0,0.081,0,0.081,0,0.009529412,0,0.081,0,0.081,0,0.081,0,0.081,0,0.081,0,0.081,0,0.009529412,0,0.081,0,0.081,0,0.081,0,0.081,0,0.081,0,0.081,0,0.009529412,0,0.081,0,0.081,0,0.081,0,0.081,0,0.081,0,0.081,0,0.009529412,0,0.081,0,0.081,0,0.081,0,0.081,0,0.081,0,0.081,0,0.02314286,0,0.02314286,0,0.02314286,0,0.02314286,0,0.02314286,0,0.02314286,0,0.02314286,0,0.02314286,0,0.009529412,0,0.081,0,0.081,0,0.081,0,0.081,0,0.081,0,0.081,0,0.0054,0
0.00675,0,0.08775,0,0.08775,0,0.08775,0,0.01032353,0,0.08775,0,0.08775,0,0.08775,0,0.08775,0,0.08775,0,0.08775,0,0.01032353,0,0.08775,0,0.08775,0,0.08775,0,0.08775,0,0.08775,0,0.08775,0,0.01032353,0,0.08775,0,0.08775,0,0.08775,0,0.08775,0,0.08775,0,0.08775,0,0.01032353,0,0.08775,0,0.08775,0,0.08775,0,0.08775,0,0.08775,0,0.08775,0,0.01032353,0,0.08775,0,0.08775,0,0.08775,0,0.08775,0,0.08775,0,0.08775,0,0.01032353,0,0.08775,0,0.08775,0,0.08775,0,0.08775,0,0.08775,0,0.08775,0,0.01032353,0,0.08775,0,0.08775,0,0.08775,0,0.08775,0,0.08775,0,0.08775,0,0.02507143,0,0.02507143,0,0.02507143,0,0.02507143,0,0.02507143,0,0.02507143,0,0.02507143,0,0.02507143,0,0.01032353,0,0.08775,0,0.08775,0,0.08775,0,0.08775,0,0.08775,0,0.08775,0,0.00585,0
0.007269231,0,0.0945,0,0.0945,0,0.0945,0,0.01111765,0,0.0945,0,0.0945,0,0.0945,0,0.0945,0,0.0945,0,0.0945,0,0.01111765,0,0.0945,0,0.0945,0,0.0945,0,0.0945,0,0.0945,0,0.0945,0,0.01111765,0,0.0945,0,0.0945,0,0.0945,0,0.0945,0,0.0945,0,0.0945,0,0.01111765,0,0.0945,0,0.0945,0,0.0945,0,0.0945,0,0.0945,0,0.0945,0,0.01111765,0,0.0945,0,0.0945,0,0.0945,0,0.0945,0,0.0945,0,0.0945,0,0.01111765,0,0.0945,0,0.0945,0,0.0945,0,0.0945,0,0.0945,0,0.0945,0,0.01111765,0,0.0945,0,0.0945,0,0.0945,0,0.0945,0,0.0945,0,0.0945,0,0.027,0,0.027,0,0.027,0,0.027,0,0.027,0,0.027,0,0.027,0,0.027,0,0.01111765,0,0.0945,0,0.0945,0,0.0945,0,0.0945,0,0.0945,0,0.0945,0,0.0063,0
0.007788462,0,0.10125,0,0.10125,0,0.10125,0,0.01191176,0,0.10125,0,0.10125,0,0.10125,0,0.10125,0,0.10125,0,0.10125,0,0.01191176,0,0.10125,0,0.10125,0,0.10125,0,0.10125,0,0.10125,0,0.10125,0,0.01191176,0,0.10125,0,0.10125,0,0.10125,0,0.10125,0,0.10125,0,0.10125,0,0.01191176,0,0.10125,0,0.10125,0,0.10125,0,0.10125,0,0.10125,0,0.10125,0,0.01191176,0,0.10125,0,0.10125,0,0.10125,0,0.10125,0,0.10125,0,0.10125,0,0.01191176,0,0.10125,0,0.10125,0,0.10125,0,0.10125,0,0.10125,0,0.10125,0,0.01191176,0,0.10125,0,0.10125,0,0.10125,0,0.10125,0,0.10125,0,0.10125,0,0.02892857,0,0.02892857,0,0.02892857,0,0.02892857,0,0.02892857,0,0.02892857,0,0.02892857,0,0.02892857,0,0.01191176,0,0.10125,0,0.10125,0,0.10125,0,0.10125,0,0.10125,0,0.10125,0,0.00675,0
0.008307693,0,0.108,0,0.108,0,0.108,0,0.01270588,0,0.108,0,0.108,0,0.108,0,0.108,0,0.108,0,0.108,0,0.01270588,0,0.108,0,0.108,0,0.108,0,0.108,0,0.108,0,0.108,0,0.01270588,0,0.108,0,0.108,0,0.108,0,0.108,0,0.108,0,0.108,0,0.01270588,0,0.108,0,0.108,0,0.108,0,0.108,0,0.108,0,0.108,0,0.01270588,0,0.108,0,0.108,0,0.108,0,0.108,0,0.108,0,0.108,0,0.01270588,0,0.108,0,0.108,0,0.108,0,0.108,0,0.108,0,0.108,0,0.01270588,0,0.108,0,0.108,0,0.108,0,0.108,0,0.108,0,0.108,0,0.03085714,0,0.03085714,0,0.03085714,0,0.03085714,0,0.03085714,0,0.03085714,0,0.03085714,0,0.03085714,0,0.01270588,0,0.108,0,0.108,0,0.108,0,0.108,0,0.108,0,0.108,0,0.0072,0
0.008826924,0,0.11475,0,0.11475,0,0.11475,0,0.0135,0,0.11475,0,0.11475,0,0.11475,0,0.11475,0,0.11475,0,0.11475,0,0.0135,0,0.11475,0,0.11475,0,0.11475,0,0.11475,0,0.11475,0,0.11475,0,0.0135,0,0.11475,0,0.11475,0,0.11475,0,0.11475,0,0.11475,0,0.11475,0,0.0135,0,0.11475,0,0.11475,0,0.11475,0,0.11475,0,0.11475,0,0.11475,0,0.0135,0,0.11475,0,0.11475,0,0.11475,0,0.11475,0,0.11475,0,0.11475,0,0.0135,0,0.11475,0,0.11475,0,0.11475,0,0.11475,0,0.11475,0,0.11475,0,0.0135,0,0.11475,0,0.11475,0,0.11475,0,0.11475,0,0.11475,0,0.11475,0,0.03278572,0,0.03278572,0,0.03278572,0,0.03278572,0,0.03278572,0,0.03278572,0,0.03278572,0,0.03278572,0,0.0135,0,0.11475,0,0.11475,0,0.11475,0,0.11475,0,0.11475,0,0.11475,0,0.00765,0
0.009346154,0,0.1215,0,0.1215,0,0.1215,0,0.01429412,0,0.1215,0,0.1215,0,0.1215,0,0.1215,0,0.1215,0,0.1215,0,0.01429412,0,0.1215,0,0.1215,0,0.1215,0,0.1215,0,0.1215,0,0.1215,0,0.01429412,0,0.1215,0,0.1215,0,0.1215,0,0.1215,0,0.1215,0,0.1215,0,0.01429412,0,0.1215,0,0.1215,0,0.1215,0,0.1215,0,0.1215,0,0.1215,0,0.01429412,0,0.1215,0,0.1215,0,0.1215,0,0.1215,0,0.1215,0,0.1215,0,0.01429412,0,0.1215,0,0.1215,0,0.1215,0,0.1215,0,0.1215,0,0.1215,0,0.01429412,0,0.1215,0,0.1215,0,0.1215,0,0.1215,0,0.1215,0,0.1215,0,0.03471429,0,0.03471429,0,0.03471429,0,0.03471429,0,0.03471429,0,0.03471429,0,0.03471429,0,0.03471429,0,0.01429412,0,0.1215,0,0.1215,0,0.1215,0,0.1215,0,0.1215,0,0.1215,0,0.0081,0
0.009865385,0,0.12825,0,0.12825,0,0.12825,0,0.01508824,0,0.12825,0,0.12825,0,0.12825,0,0.12825,0,0.12825,0,0.12825,0,0.01508824,0,0.12825,0,0.12825,0,0.12825,0,0.12825,0,0.12825,0,0.12825,0,0.01508824,0,0.12825,0,0.12825,0,0.12825,0,0.12825,0,0.12825,0,0.12825,0,0.01508824,0,0.12825,0,0.12825,0,0.12825,0,0.12825,0,0.12825,0,0.12825,0,0.01508824,0,0.12825,0,0.12825,0,0.12825,0,0.12825,0,0.12825,0,0.12825,0,0.01508824,0,0.12825,0,0.12825,0,0.12825,0,0.12825,0,0.12825,0,0.12825,0,0.01508824,0,0.12825,0,0.12825,0,0.12825,0,0.12825,0,0.12825,0,0.12825,0,0.03664286,0,0.03664286,0,0.03664286,0,0.03664286,0,0.03664286,0,0.03664286,0,0.03664286,0,0.03664286,0,0.01508824,0,0.12825,0,0.12825,0,0.12825,0,0.12825,0,0.12825,0,0.12825,0,0.00855,0
0.01038462,0,0.135,-1.117924,0.135,-0.1927455,0.135,-0.3854911,0.01588235,0,0.135,0.3837891,0.135,-0.9311523,0.135,0.07177734,0.135,87.37805,0.135,-8.353659,0.135,-6.707317,0.01588235,0,0.135,-0.8491211,0.135,-0.3354492,0.135,0.2490234,0.135,-14.5122,0.135,5.182927,0.135,4.02439,0.01588235,0,0.135,0,0.135,0,0.135,0,0.135,0,0.135,0,0.135,0,0.01588235,0,0.135,-0.002929688,0.135,-0.4482422,0.135,0.7983398,0.135,15.73171,0.135,-3.170732,0.135,12.43902,0.01588235,0,0.135,0,0.135,0,0.135,0,0.135,0,0.135,0,0.135,0,0.01588235,0,0.135,0,0.135,0,0.135,0,0.135,0,0.135,0,0.135,0,0.01588235,0,0.135,0.2070313,0.135,-0.9516602,0.135,-0.1538086,0.135,-7.804878,0.135,-18.59756,0.135,-14.45122,0.03857143,0,0.03857143,0,0.03857143,0,0.03857143,0,0.03857143,0,0.03857143,0,0.03857143,0,0.03857143,0,0.01588235,0,0.135,-0.9594727,0.135,0.01855469,0.135,-0.06005859,0.135,-22.37805,0.135,-2.926829,0.135,-4.207317,0.009000001,0
0.01090385,0,0.14175,-1.117924,0.14175,-0.1541964,0.14175,-0.3854911,0.01667647,0,0.14175,0.3911133,0.14175,-0.9272461,0.14175,0.08837891,0.14175,87.80488,0.14175,-5.182927,0.14175,-7.804878,0.01667647,0,0.14175,-0.8525391,0.14175,-0.3300781,0.14175,0.2460938,0.14175,-15.30488,0.14175,4.146341,0.14175,3.841464,0.01667647,0,0.14175,0,0.14175,0,0.14175,0,0.14175,0,0.14175,0,0.14175,0,0.01667647,0,0.14175,-0.01318359,0.14175,-0.4526367,0.14175,0.7983398,0.14175,15.48781,0.14175,-3.47561,0.14175,12.56098,0.01667647,0,0.14175,0,0.14175,0,0.14175,0,0.14175,0,0.14175,0,0.14175,0,0.01667647,0,0.14175,0,0.14175,0,0.14175,0,0.14175,0,0.14175,0,0.14175,0,0.01667647,0,0.14175,0.246582,0.14175,-0.9472656,0.14175,-0.1601563,0.14175,-7.317073,0.14175,-18.71951,0.14175,-13.96342,0.0405,0,0.0405,0,0.0405,0,0.0405,0,0.0405,0,0.0405,0,0.0405,0,0.0405,0,0.01667647,0,0.14175,-0.9506836,0.14175,0.0390625,0.14175,-0.07275391,0.14175,-22.0122,0.14175,-3.963415,0.14175,-4.02439,0.00945,0
0.01142308,0,0.1485,-1.117924,0.1485,-0.1541964,0.1485,-0.3854911,0.01747059,0,0.1485,0.3959961,0.1485,-0.9179688,0.1485,0.112793,0.1485,88.35366,0.1485,-2.865854,0.1485,-7.987805,0.01747059,0,0.1485,-0.8530273,0.1485,-0.3203125,0.1485,0.2368164,0.1485,-15.18293,0.1485,3.658537,0.1485,3.841464,0.01747059,0,0.1485,0,0.1485,0,0.1485,0,0.1485,0,0.1485,0,0.1485,0,0.01747059,0,0.1485,-0.015625,0.1485,-0.4541016,0.1485,0.7963867,0.1485,15.36585,0.1485,-4.573171,0.1485,12.86585,0.01747059,0,0.1485,0,0.1485,0,0.1485,0,0.1485,0,0.1485,0,0.1485,0,0.01747059,0,0.1485,0,0.1485,0,0.1485,0,0.1485,0,0.1485,0,0.1485,0,0.01747059,0,0.1485,0.2949219,0.1485,-0.9394531,0.1485,-0.1665039,0.1485,-7.012195,0.1485,-18.71951,0.1485,-13.90244,0.04242857,0,0.04242857,0,0.04242857,0,0.04242857,0,0.04242857,0,0.04242857,0,0.04242857,0,0.04242857,0,0.01747059,0,0.1485,-0.9414063,0.1485,0.05029297,0.1485,-0.07373047,0.1485,-22.13415,0.1485,-3.780488,0.1485,-3.902439,0.0099,0
0.01194231,0,0.15525,-1.117924,0.15525,-0.1156473,0.15525,-0.3854911,0.01826471,0,0.15525,0.402832,0.15525,-0.9033203,0.15525,0.1367188,0.15525,88.10976,0.15525,0.6097561,0.15525,-8.536586,0.01826471,0,0.15525,-0.8520508,0.15525,-0.3134766,0.15525,0.2338867,0.15525,-14.45122,0.15525,3.902439,0.15525,4.085366,0.01826471,0,0.15525,0,0.15525,0,0.15525,0,0.15525,0,0.15525,0,0.15525,0,0.01826471,0,0.15525,-0.01513672,0.15525,-0.4545898,0.15525,0.7983398,0.15525,15.48781,0.15525,-5.914634,0.15525,13.23171,0.01826471,0,0.15525,0,0.15525,0,0.15525,0,0.15525,0,0.15525,0,0.15525,0,0.01826471,0,0.15525,0,0.15525,0,0.15525,0,0.15525,0,0.15525,0,0.15525,0,0.01826471,0,0.15525,0.3120117,0.15525,-0.9404297,0.15525,-0.1762695,0.15525,-6.768293,0.15525,-15.36585,0.15525,-14.63415,0.04435714,0,0.04435714,0,0.04435714,0,0.04435714,0,0.04435714,0,0.04435714,0,0.04435714,0,0.04435714,0,0.01826471,0,0.15525,-0.9384766,0.15525,0.05224609,0.15525,-0.06591797,0.15525,-22.2561,0.15525,-3.47561,0.15525,-4.207317,0.01035,0
0.01246154,0,0.162,-1.117924,0.162,-0.07709821,0.162,-0.3854911,0.01905882,0,0.162,0.3911133,0.162,-0.8862305,0.162,0.1748047,0.162,88.41463,0.162,6.463415,0.162,-10.36585,0.01905882,0,0.162,-0.8530273,0.162,-0.3144531,0.162,0.2402344,0.162,-14.02439,0.162,3.292683,0.162,4.512195,0.01905882,0,0.162,0,0.162,0,0.162,0,0.162,0,0.162,0,0.162,0,0.01905882,0,0.162,-0.01708984,0.162,-0.4438477,0.162,0.7949219,0.162,15.2439,0.162,-6.52439,0.162,13.65854,0.01905882,0,0.162,0,0.162,0,0.162,0,0.162,0,0.162,0,0.162,0,0.01905882,0,0.162,0,0.162,0,0.162,0,0.162,0,0.162,0,0.162,0,0.01905882,0,0.162,0.3100586,0.162,-0.9438477,0.162,-0.1748047,0.162,-6.95122,0.162,-13.17073,0.162,-14.5122,0.04628571,0,0.04628571,0,0.04628571,0,0.04628571,0,0.04628571,0,0.04628571,0,0.04628571,0,0.04628571,0,0.01905882,0,0.162,-0.9404297,0.162,0.05566406,0.162,-0.05957031,0.162,-22.43902,0.162,-3.170732,0.162,-4.878049,0.0108,0
0.01298077,0,0.16875,-1.117924,0.16875,-0.07709821,0.16875,-0.346942,0.01985294,0,0.16875,0.3710938,0.16875,-0.8720703,0.16875,0.1894531,0.16875,89.14635,0.16875,13.47561,0.16875,-12.5,0.01985294,0,0.16875,-0.8569336,0.16875,-0.3183594,0.16875,0.2426758,0.16875,-14.02439,0.16875,2.560976,0.16875,5.365854,0.01985294,0,0.16875,0,0.16875,0,0.16875,0,0.16875,0,0.16875,0,0.16875,0,0.01985294,0,0.16875,-0.01513672,0.16875,-0.4282227,0.16875,0.7890625,0.16875,14.14634,0.16875,-5.304878,0.16875,14.02439,0.01985294,0,0.16875,0,0.16875,0,0.16875,0,0.16875,0,0.16875,0,0.16875,0,0.01985294,0,0.16875,0,0.16875,0,0.16875,0,0.16875,0,0.16875,0,0.16875,0,0.01985294,0,0.16875,0.3071289,0.16875,-0.9545898,0.16875,-0.1669922,0.16875,-6.341464,0.16875,-11.28049,0.16875,-14.08537,0.04821429,0,0.04821429,0,0.04821429,0,0.04821429,0,0.04821429,0,0.04821429,0,0.04821429,0,0.04821429,0,0.01985294,0,0.16875,-0.9516602,0.16875,0.05664063,0.16875,-0.05908203,0.16875,-22.68293,0.16875,-3.109756,0.16875,-5.670732,0.01125,0
0.0135,0,0.1755,-1.117924,0.1755,-0.1156473,0.1755,-0.346942,0.02064706,0,0.1755,0.3383789,0.1755,-0.8535156,0.1755,0.1870117,0.1755,86.82927,0.1755,17.56098,0.1755,-13.53659,0.02064706,0,0.1755,-0.8579102,0.1755,-0.3261719,0.1755,0.2456055,0.1755,-13.84146,0.1755,2.804878,0.1755,5.670732,0.02064706,0,0.1755,0,0.1755,0,0.1755,0,0.1755,0,0.1755,0,0.1755,0,0.02064706,0,0.1755,-0.02539063,0.1755,-0.4165039,0.1755,0.7910156,0.1755,12.7439,0.1755,-3.658537,0.1755,14.81707,0.02064706,0,0.1755,0,0.1755,0,0.1755,0,0.1755,0,0.1755,0,0.1755,0,0.02064706,0,0.1755,0,0.1755,0,0.1755,0,0.1755,0,0.1755,0,0.1755,0,0.02064706,0,0.1755,0.2954102,0.1755,-0.9580078,0.1755,-0.1796875,0.1755,-6.52439,0.1755,-10.30488,0.1755,-13.84146,0.05014286,0,0.05014286,0,0.05014286,0,0.05014286,0,0.05014286,0,0.05014286,0,0.05014286,0,0.05014286,0,0.02064706,0,0.1755,-0.9589844,0.1755,0.05126953,0.1755,-0.05664063,0.1755,-23.35366,0.1755,-3.04878,0.1755,-6.097561,0.0117,0
0.01401923,0,0.18225,-1.117924,0.18225,-0.1156473,0.18225,-0.346942,0.02144118,0,0.18225,0.3198242,0.18225,-0.8427734,0.18225,0.1850586,0.18225,82.86585,0.18225,17.19512,0.18225,-14.14634,0.02144118,0,0.18225,-0.8642578,0.18225,-0.3325195,0.18225,0.2460938,0.18225,-12.68293,0.18225,3.963415,0.18225,6.341464,0.02144118,0,0.18225,0,0.18225,0,0.18225,0,0.18225,0,0.18225,0,0.18225,0,0.02144118,0,0.18225,-0.03369141,0.18225,-0.418457,0.18225,0.7973633,0.18225,11.28049,0.18225,-2.560976,0.18225,15.42683,0.02144118,0,0.18225,0,0.18225,0,0.18225,0,0.18225,0,0.18225,0,0.18225,0,0.02144118,0,0.18225,0,0.18225,0,0.18225,0,0.18225,0,0.18225,0,0.18225,0,0.02144118,0,0.18225,0.2900391,0.18225,-0.9570313,0.18225,-0.1801758,0.18225,-7.012195,0.18225,-8.536586,0.18225,-13.17073,0.05207143,0,0.05207143,0,0.05207143,0,0.05207143,0,0.05207143,0,0.05207143,0,0.05207143,0,0.05207143,0,0.02144118,0,0.18225,-0.9702148,0.18225,0.04931641,0.18225,-0.05664063,0.18225,-23.90244,0.18225,-3.231707,0.18225,-6.402439,0.01215,0
0.01453846,0,0.189,-1.079375,0.189,-0.1541964,0.189,-0.346942,0.02223529,0,0.189,0.3173828,0.189,-0.84375,0.189,0.1845703,0.189,81.09756,0.189,16.76829,0.189,-14.26829,0.02223529,0,0.189,-0.8671875,0.189,-0.3320313,0.189,0.2480469,0.189,-12.0122,0.189,4.390244,0.189,6.646342,0.02223529,0,0.189,0,0.189,0,0.189,0,0.189,0,0.189,0,0.189,0,0.02223529,0,0.189,-0.04150391,0.189,-0.4287109,0.189,0.8085938,0.189,10.67073,0.189,-1.463415,0.189,16.28049,0.02223529,0,0.189,0,0.189,0,0.189,0,0.189,0,0.189,0,0.189,0,0.02223529,0,0.189,0,0.189,0,0.189,0,0.189,0,0.189,0,0.189,0,0.02223529,0,0.189,0.2890625,0.189,-0.9472656,0.189,-0.1650391,0.189,-7.256098,0.189,-8.719512,0.189,-12.80488,0.054,0,0.054,0,0.054,0,0.054,0,0.054,0,0.054,0,0.054,0,0.054,0,0.02223529,0,0.189,-0.9755859,0.189,0.046875,0.189,-0.05224609,0.189,-24.5122,0.189,-3.414634,0.189,-6.768293,0.0126,0
0.01505769,0,0.19575,-1.079375,0.19575,-0.1541964,0.19575,-0.346942,0.02302941,0,0.19575,0.3144531,0.19575,-0.847168,0.19575,0.1782227,0.19575,79.02439,0.19575,16.40244,0.19575,-14.7561,0.02302941,0,0.19575,-0.8691406,0.19575,-0.328125,0.19575,0.2495117,0.19575,-12.56098,0.19575,4.207317,0.19575,7.012195,0.02302941,0,0.19575,0,0.19575,0,0.19575,0,0.19575,0,0.19575,0,0.19575,0,0.02302941,0,0.19575,-0.04589844,0.19575,-0.4365234,0.19575,0.8110352,0.19575,10.2439,0.19575,-0.6707317,0.19575,17.07317,0.02302941,0,0.19575,0,0.19575,0,0.19575,0,0.19575,0,0.19575,0,0.19575,0,0.02302941,0,0.19575,0,0.19575,0,0.19575,0,0.19575,0,0.19575,0,0.19575,0,0.02302941,0,0.19575,0.2851563,0.19575,-0.9384766,0.19575,-0.1572266,0.19575,-6.890244,0.19575,-7.378049,0.19575,-12.80488,0.05592857,0,0.05592857,0,0.05592857,0,0.05592857,0,0.05592857,0,0.05592857,0,0.05592857,0,0.05592857,0,0.02302941,0,0.19575,-0.9853516,0.19575,0.046875,0.19575,-0.04589844,0.19575,-24.39024,0.19575,-4.02439,0.19575,-6.829268,0.01305,0
0.01557692,0,0.2025,-1.079375,0.2025,-0.1541964,0.2025,-0.346942,0.02382353,0,0.2025,0.3076172,0.2025,-0.8608398,0.2025,0.1650391,0.2025,77.37805,0.2025,14.63415,0.2025,-15.60976,0.02382353,0,0.2025,-0.8691406,0.2025,-0.3286133,0.2025,0.2524414,0.2025,-13.84146,0.2025,3.780488,0.2025,7.439024,0.02382353,0,0.2025,0,0.2025,0,0.2025,0,0.2025,0,0.2025,0,0.2025,0,0.02382353,0,0.2025,-0.04931641,0.2025,-0.4443359,0.2025,0.8188477,0.2025,9.939025,0.2025,-1.158537,0.2025,17.9878,0.02382353,0,0.2025,0.203125,0.2025,-0.9433594,0.2025,-0.3842773,0.2025,-7.926829,0.2025,-8.292683,0.2025,-4.695122,0.02382353,0,0.2025,0.2509766,0.2025,-0.9428711,0.2025,-0.1538086,0.2025,11.58537,0.2025,0.7317073,0.2025,-13.90244,0.02382353,0,0.2025,0.2626953,0.2025,-0.9375,0.2025,-0.1616211,0.2025,-6.829268,0.2025,-8.109756,0.2025,-12.56098,0.05785714,0,0.05785714,0,0.05785714,0,0.05785714,0,0.05785714,0,0.05785714,0,0.05785714,0,0.05785714,0,0.02382353,0,0.2025,-1,0.2025,0.05175781,0.2025,-0.04785156,0.2025,-24.39024,0.2025,-4.634146,0.2025,-7.012195,0.0135,0
0.01609615,0,0.20925,-1.079375,0.20925,-0.1541964,0.20925,-0.346942,0.02461765,0,0.20925,0.3120117,0.20925,-0.8798828,0.20925,0.1479492,0.20925,75.54878,0.20925,11.28049,0.20925,-16.58537,0.02461765,0,0.20925,-0.8676758,0.20925,-0.3251953,0.20925,0.2587891,0.20925,-14.87805,0.20925,3.47561,0.20925,7.804878,0.02461765,0,0.20925,0,0.20925,0,0.20925,0,0.20925,0,0.20925,0,0.20925,0,0.02461765,0,0.20925,-0.04931641,0.20925,-0.4516602,0.20925,0.8227539,0.20925,10.42683,0.20925,-2.682927,0.20925,18.35366,0.02461765,0,0.20925,0.1977539,0.20925,-0.9472656,0.20925,-0.3808594,0.20925,-6.768293,0.20925,-9.085366,0.20925,-4.695122,0.02461765,0,0.20925,0.2373047,0.20925,-0.9423828,0.20925,-0.1625977,0.20925,11.21951,0.20925,1.280488,0.20925,-14.7561,0.02461765,0,0.20925,0.2583008,0.20925,-0.9423828,0.20925,-0.1635742,0.20925,-6.402439,0.20925,-10.91463,0.20925,-11.82927,0.05978572,0,0.05978572,0,0.05978572,0,0.05978572,0,0.05978572,0,0.05978572,0,0.05978572,0,0.05978572,0,0.02461765,0,0.20925,-1.000488,0.20925,0.04931641,0.20925,-0.05566406,0.20925,-24.63415,0.20925,-5.060976,0.20925,-6.646342,0.01395,0
0.01661539,0,0.216,-1.079375,0.216,-0.1541964,0.216,-0.3854911,0.02541176,0,0.216,0.3193359,0.216,-0.9038086,0.216,0.1333008,0.216,73.23171,0.216,7.621952,0.216,-17.7439,0.02541176,0,0.216,-0.8676758,0.216,-0.3256836,0.216,0.2646484,0.216,-15.06098,0.216,3.47561,0.216,8.414635,0.02541176,0,0.216,0,0.216,0,0.216,0,0.216,0,0.216,0,0.216,0,0.02541176,0,0.216,-0.04785156,0.216,-0.4516602,0.216,0.8256836,0.216,10.36585,0.216,-3.170732,0.216,18.71951,0.02541176,0,0.216,0.1933594,0.216,-0.9492188,0.216,-0.3842773,0.216,-5.243903,0.216,-9.695122,0.216,-4.45122,0.02541176,0,0.216,0.234375,0.216,-0.9472656,0.216,-0.1772461,0.216,11.15854,0.216,1.158537,0.216,-15.18293,0.02541176,0,0.216,0.2617188,0.216,-0.9560547,0.216,-0.1689453,0.216,-5.792683,0.216,-12.2561,0.216,-11.34146,0.06171429,0,0.06171429,0,0.06171429,0,0.06171429,0,0.06171429,0,0.06171429,0,0.06171429,0,0.06171429,0,0.02541176,0,0.216,-0.9990234,0.216,0.04785156,0.216,-0.06591797,0.216,-25.36585,0.216,-5.182927,0.216,-6.097561,0.0144,0
0.01713462,0,0.22275,-1.117924,0.22275,-0.1541964,0.22275,-0.3854911,0.02620588,0,0.22275,0.3339844,0.22275,-0.9272461,0.22275,0.1279297,0.22275,71.7683,0.22275,4.146341,0.22275,-18.17073,0.02620588,0,0.22275,-0.871582,0.22275,-0.3310547,0.22275,0.2695313,0.22275,-14.87805,0.22275,3.780488,0.22275,9.085366,0.02620588,0,0.22275,0,0.22275,0,0.22275,0,0.22275,0,0.22275,0,0.22275,0,0.02620588,0,0.22275,-0.04833984,0.22275,-0.4575195,0.22275,0.8320313,0.22275,9.634147,0.22275,-2.317073,0.22275,18.84146,0.02620588,0,0.22275,0.1914063,0.22275,-0.9443359,0.22275,-0.3852539,0.22275,-4.02439,0.22275,-9.634147,0.22275,-4.390244,0.02620588,0,0.22275,0.2358398,0.22275,-0.9628906,0.22275,-0.1889648,0.22275,10.91463,0.22275,-0.6707317,0.22275,-15.2439,0.02620588,0,0.22275,0.2768555,0.22275,-0.9760742,0.22275,-0.1806641,0.22275,-4.634146,0.22275,-13.84146,0.22275,-10.97561,0.06364286,0,0.06364286,0,0.06364286,0,0.06364286,0,0.06364286,0,0.06364286,0,0.06364286,0,0.06364286,0,0.02620588,0,0.22275,-0.9941406,0.22275,0.04736328,0.22275,-0.0703125,0.22275,-26.09756,0.22275,-4.573171,0.22275,-5.54878,0.01485,0
0.01765385,0,0.2295,-1.117924,0.2295,-0.1541964,0.2295,-0.346942,0.027,0,0.2295,0.3554688,0.2295,-0.9389648,0.2295,0.1269531,0.2295,71.03659,0.2295,0.2439024,0.2295,-17.86585,0.027,0,0.2295,-0.8774414,0.2295,-0.3374023,0.2295,0.277832,0.2295,-14.87805,0.2295,4.146341,0.2295,9.878049,0.027,0,0.2295,-0.8701172,0.2295,-0.4394531,0.2295,-0.3208008,0.2295,1.097561,0.2295,10.85366,0.2295,-11.28049,0.027,0,0.2295,-0.05517578,0.2295,-0.4584961,0.2295,0.8457031,0.2295,9.268292,0.2295,-2.256098,0.2295,18.90244,0.027,0,0.2295,0.1894531,0.2295,-0.9467773,0.2295,-0.3955078,0.2295,-3.963415,0.2295,-9.939025,0.2295,-4.817073,0.027,0,0.2295,0.2416992,0.2295,-0.9716797,0.2295,-0.1918945,0.2295,11.03659,0.2295,-2.5,0.2295,-15,0.027,0,0.2295,0.3056641,0.2295,-0.9853516,0.2295,-0.1860352,0.2295,-4.085366,0.2295,-14.26829,0.2295,-10.30488,0.06557143,0,0.06557143,0,0.06557143,0,0.06557143,0,0.06557143,0,0.06557143,0,0.06557143,0,0.06557143,0,0.027,0,0.2295,-0.9887695,0.2295,0.04296875,0.2295,-0.07373047,0.2295,-26.95122,0.2295,-3.536585,0.2295,-5.731708,0.0153,0
0.01817308,0,0.23625,-1.156473,0.23625,-0.1541964,0.23625,-0.3854911,0.02779412,0,0.23625,0.3798828,0.23625,-0.9418945,0.23625,0.1303711,0.23625,70,0.23625,-2.865854,0.23625,-17.37805,0.02779412,0,0.23625,-0.878418,0.23625,-0.3461914,0.23625,0.2851563,0.23625,-14.87805,0.23625,4.512195,0.23625,10.18293,0.02779412,0,0.23625,-0.8789063,0.23625,-0.4389648,0.23625,-0.3261719,0.23625,0.3658537,0.23625,11.09756,0.23625,-11.03659,0.02779412,0,0.23625,-0.05224609,0.23625,-0.4599609,0.23625,0.8452148,0.23625,9.268292,0.23625,-3.658537,0.23625,18.53658,0.02779412,0,0.23625,0.1870117,0.23625,-0.9423828,0.23625,-0.3989258,0.23625,-4.45122,0.23625,-10.73171,0.23625,-5.670732,0.02779412,0,0.23625,0.2519531,0.23625,-0.9775391,0.23625,-0.1918945,0.23625,12.2561,0.23625,-6.219512,0.23625,-15.30488,0.02779412,0,0.23625,0.3422852,0.23625,-0.9848633,0.23625,-0.1860352,0.23625,-3.963415,0.23625,-14.14634,0.23625,-9.329268,0.0675,0,0.0675,0,0.0675,0,0.0675,0,0.0675,0,0.0675,0,0.0675,0,0.0675,0,0.02779412,0,0.23625,-0.9873047,0.23625,0.03662109,0.23625,-0.07080078,0.23625,-27.07317,0.23625,-3.109756,0.23625,-5.54878,0.01575,0
0.01869231,0,0.243,-1.156473,0.243,-0.1541964,0.243,-0.3854911,0.02858824,0,0.243,0.3964844,0.243,-0.9414063,0.243,0.140625,0.243,68.35366,0.243,-4.02439,0.243,-17.31707,0.02858824,0,0.243,-0.8789063,0.243,-0.3510742,0.243,0.2924805,0.243,-14.45122,0.243,4.695122,0.243,9.817074,0.02858824,0,0.243,-0.8774414,0.243,-0.4399414,0.243,-0.3295898,0.243,-0.7317073,0.243,11.21951,0.243,-11.03659,0.02858824,0,0.243,-0.04443359,0.243,-0.4599609,0.243,0.8447266,0.243,9.146341,0.243,-5,0.243,18.23171,0.02858824,0,0.243,0.1933594,0.243,-0.9511719,0.243,-0.4038086,0.243,-4.939024,0.243,-11.76829,0.243,-6.646342,0.02858824,0,0.243,0.2749023,0.243,-0.9892578,0.243,-0.1884766,0.243,13.29268,0.243,-9.207317,0.243,-15.48781,0.02858824,0,0.243,0.3618164,0.243,-0.9746094,0.243,-0.1821289,0.243,-4.085366,0.243,-12.5,0.243,-8.414635,0.06942858,0,0.06942858,0,0.06942858,0,0.06942858,0,0.06942858,0,0.06942858,0,0.06942858,0,0.06942858,0,0.02858824,0,0.243,-0.984375,0.243,0.02880859,0.243,-0.0625,0.243,-27.2561,0.243,-2.743902,0.243,-5.914634,0.0162,0
0.01921154,0,0.24975,-1.195022,0.24975,-0.1541964,0.24975,-0.4240402,0.02938235,0,0.24975,0.3974609,0.24975,-0.9370117,0.24975,0.15625,0.24975,66.7683,0.24975,-3.353659,0.24975,-17.19512,0.02938235,0,0.24975,-0.8813477,0.24975,-0.3588867,0.24975,0.296875,0.24975,-14.20732,0.24975,4.45122,0.24975,9.573171,0.02938235,0,0.24975,-0.8803711,0.24975,-0.449707,0.24975,-0.3261719,0.24975,-1.646341,0.24975,11.21951,0.24975,-11.21951,0.02938235,0,0.24975,-0.03955078,0.24975,-0.4628906,0.24975,0.8452148,0.24975,8.536586,0.24975,-4.390244,0.24975,17.7439,0.02938235,0,0.24975,0.2021484,0.24975,-0.9584961,0.24975,-0.4023438,0.24975,-5.487805,0.24975,-12.43902,0.24975,-7.439024,0.02938235,0,0.24975,0.2880859,0.24975,-0.9936523,0.24975,-0.1884766,0.24975,14.08537,0.24975,-11.28049,0.24975,-16.52439,0.02938235,0,0.24975,0.3666992,0.24975,-0.9731445,0.24975,-0.1791992,0.24975,-4.634146,0.24975,-10.18293,0.24975,-8.170732,0.07135715,0,0.07135715,0,0.07135715,0,0.07135715,0,0.07135715,0,0.07135715,0,0.07135715,0,0.07135715,0,0.02938235,0,0.24975,-0.996582,0.24975,0.02294922,0.24975,-0.06396484,0.24975,-26.89025,0.24975,-2.256098,0.24975,-6.036585,0.01665,0
0.01973077,0,0.2565,-1.195022,0.2565,-0.1541964,0.2565,-0.3854911,0.03017647,0,0.2565,0.3959961,0.2565,-0.9335938,0.2565,0.1777344,0.2565,64.39024,0.2565,-1.646341,0.2565,-16.95122,0.03017647,0,0.2565,-0.8837891,0.2565,-0.3579102,0.2565,0.300293,0.2565,-14.45122,0.2565,3.902439,0.2565,9.085366,0.03017647,0,0.2565,-0.8793945,0.2565,-0.4541016,0.2565,-0.3325195,0.2565,-1.646341,0.2565,10.06098,0.2565,-11.28049,0.03017647,0,0.2565,-0.03808594,0.2565,-0.46875,0.2565,0.8583984,0.2565,8.414635,0.2565,-3.170732,0.2565,17.0122,0.03017647,0,0.2565,0.2089844,0.2565,-0.972168,0.2565,-0.4003906,0.2565,-5.731708,0.2565,-12.43902,0.2565,-7.926829,0.03017647,0,0.2565,0.2973633,0.2565,-0.9936523,0.2565,-0.1850586,0.2565,14.69512,0.2565,-11.28049,0.2565,-17.62195,0.03017647,0,0.2565,0.3544922,0.2565,-0.9692383,0.2565,-0.1782227,0.2565,-4.939024,0.2565,-9.268292,0.2565,-8.292683,0.07328572,0,0.07328572,0,0.07328572,0,0.07328572,0,0.07328572,0,0.07328572,0,0.07328572,0,0.07328572,0,0.03017647,0,0.2565,-1.006348,0.2565,0.02197266,0.2565,-0.06542969,0.2565,-26.89025,0.2565,-1.585366,0.2565,-5.97561,0.0171,0
0.02025,0,0.26325,-1.195022,0.26325,-0.1541964,0.26325,-0.3854911,0.03097059,0,0.26325,0.3803711,0.26325,-0.9345703,0.26325,0.2099609,0.26325,61.95122,0.26325,-1.52439,0.26325,-16.52439,0.03097059,0,0.26325,-0.8857422,0.26325,-0.355957,0.26325,0.2983398,0.26325,-14.14634,0.26325,3.719512,0.26325,8.231708,0.03097059,0,0.26325,-0.8769531,0.26325,-0.4682617,0.26325,-0.34375,0.26325,-1.707317,0.26325,9.390244,0.26325,-11.52439,0.03097059,0,0.26325,-0.04248047,0.26325,-0.4799805,0.26325,0.8706055,0.26325,8.658537,0.26325,-3.902439,0.26325,16.21951,0.03097059,0,0.26325,0.2167969,0.26325,-0.9790039,0.26325,-0.3945313,0.26325,-5.853659,0.26325,-12.07317,0.26325,-7.987805,0.03097059,0,0.26325,0.3007813,0.26325,-0.9951172,0.26325,-0.1826172,0.26325,14.93902,0.26325,-10.06098,0.26325,-18.47561,0.03097059,0,0.26325,0.324707,0.26325,-0.9833984,0.26325,-0.1723633,0.26325,-5.365854,0.26325,-6.463415,0.26325,-8.231708,0.07521429,0,0.07521429,0,0.07521429,0,0.07521429,0,0.07521429,0,0.07521429,0,0.07521429,0,0.07521429,0,0.03097059,0,0.26325,-1.020508,0.26325,0.02197266,0.26325,-0.06884766,0.26325,-27.37805,0.26325,-1.158537,0.26325,-5.670732,0.01755,0
0.02076923,0,0.27,-1.156473,0.27,-0.1541964,0.27,-0.3854911,0.0317647,0,0.27,0.3652344,0.27,-0.9311523,0.27,0.2504883,0.27,60.06098,0.27,-2.926829,0.27,-15.97561,0.0317647,0,0.27,-0.8876953,0.27,-0.3554688,0.27,0.2958984,0.27,-13.47561,0.27,4.146341,0.27,7.621952,0.0317647,0,0.27,-0.8803711,0.27,-0.4755859,0.27,-0.34375,0.27,-1.52439,0.27,9.329268,0.27,-11.34146,0.0317647,0,0.27,-0.05419922,0.27,-0.4755859,0.27,0.8754883,0.27,9.268292,0.27,-3.658537,0.27,15.73171,0.0317647,0,0.27,0.2241211,0.27,-0.984375,0.27,-0.394043,0.27,-5.487805,0.27,-10.97561,0.27,-7.865854,0.0317647,0,0.27,0.2988281,0.27,-0.9946289,0.27,-0.1816406,0.27,15.30488,0.27,-9.02439,0.27,-18.71951,0.0317647,0,0.27,0.28125,0.27,-1.00293,0.27,-0.1743164,0.27,-5.487805,0.27,-4.512195,0.27,-7.865854,0.07714286,0,0.07714286,0,0.07714286,0,0.07714286,0,0.07714286,0,0.07714286,0,0.07714286,0,0.07714286,0,0.0317647,0,0.27,-1.026855,0.27,0.01708984,0.27,-0.06689453,0.27,-27.86585,0.27,-0.7317073,0.27,-5,0.018,0
0.02128846,0,0.27675,-1.156473,0.27675,-0.1541964,0.27675,-0.3854911,0.03255882,0,0.27675,0.3476563,0.27675,-0.9228516,0.27675,0.269043,0.27675,58.96342,0.27675,-2.439024,0.27675,-15.54878,0.03255882,0,0.27675,-0.8876953,0.27675,-0.3525391,0.27675,0.296875,0.27675,-13.29268,0.27675,5.731708,0.27675,6.646342,0.03255882,0,0.27675,-0.8847656,0.27675,-0.480957,0.27675,-0.3398438,0.27675,-0.6707317,0.27675,9.939025,0.27675,-10.67073,0.03255882,0,0.27675,-0.07177734,0.27675,-0.4726563,0.27675,0.8764648,0.27675,10.2439,0.27675,-2.256098,0.27675,15.06098,0.03255882,0,0.27675,0.2265625,0.27675,-0.9926758,0.27675,-0.3935547,0.27675,-5.304878,0.27675,-9.939025,0.27675,-7.621952,0.03255882,0,0.27675,0.2963867,0.27675,-0.9956055,0.27675,-0.1860352,0.27675,15.73171,0.27675,-8.780488,0.27675,-18.90244,0.03255882,0,0.27675,0.25,0.27675,-1.015625,0.27675,-0.171875,0.27675,-5.182927,0.27675,-4.268293,0.27675,-7.560976,0.07907143,0,0.07907143,0,0.07907143,0,0.07907143,0,0.07907143,0,0.07907143,0,0.07907143,0,0.07907143,0,0.03255882,0,0.27675,-1.031738,0.27675,0.01074219,0.27675,-0.0625,0.27675,-28.17073,0.27675,-0.6097561,0.27675,-4.45122,0.01845,0
0.02180769,0,0.2835,-1.156473,0.2835,-0.1541964,0.2835,-0.3854911,0.03335294,0,0.2835,0.3320313,0.2835,-0.9150391,0.2835,0.2573242,0.2835,58.17073,0.2835,-1.280488,0.2835,-15.30488,0.03335294,0,0.2835,-0.8930664,0.2835,-0.3432617,0.2835,0.2993164,0.2835,-13.17073,0.2835,6.341464,0.2835,6.463415,0.03335294,0,0.2835,-0.8837891,0.2835,-0.4848633,0.2835,-0.3422852,0.2835,1.341463,0.2835,10.48781,0.2835,-9.756098,0.03335294,0,0.2835,-0.09130859,0.2835,-0.472168,0.2835,0.8652344,0.2835,10.73171,0.2835,-1.829268,0.2835,14.63415,0.03335294,0,0.2835,0.2290039,0.2835,-0.9931641,0.2835,-0.3886719,0.2835,-5.060976,0.2835,-9.695122,0.2835,-7.317073,0.03335294,0,0.2835,0.2954102,0.2835,-0.9902344,0.2835,-0.1879883,0.2835,15.36585,0.2835,-8.353659,0.2835,-18.71951,0.03335294,0,0.2835,0.2358398,0.2835,-1.015625,0.2835,-0.1791992,0.2835,-4.329268,0.2835,-5.304878,0.2835,-7.195122,0.081,0,0.081,0,0.081,0,0.081,0,0.081,0,0.081,0,0.081,0,0.081,0,0.03335294,0,0.2835,-1.036133,0.2835,0.005371094,0.2835,-0.05908203,0.2835,-27.7439,0.2835,-0.8536586,0.2835,-4.085366,0.0189,0
0.02232692,0,0.29025,-1.156473,0.29025,-0.1541964,0.29025,-0.3854911,0.03414706,0,0.29025,0.324707,0.29025,-0.9125977,0.29025,0.246582,0.29025,55.85366,0.29025,3.109756,0.29025,-14.39024,0.03414706,0,0.29025,-0.8969727,0.29025,-0.3388672,0.29025,0.3007813,0.29025,-13.65854,0.29025,6.890244,0.29025,5.97561,0.03414706,0,0.29025,-0.8823242,0.29025,-0.4882813,0.29025,-0.3452148,0.29025,3.658537,0.29025,10.67073,0.29025,-9.085366,0.03414706,0,0.29025,-0.1025391,0.29025,-0.4765625,0.29025,0.8657227,0.29025,10.79268,0.29025,-3.109756,0.29025,14.69512,0.03414706,0,0.29025,0.2290039,0.29025,-0.9912109,0.29025,-0.3857422,0.29025,-4.817073,0.29025,-9.817074,0.29025,-6.768293,0.03414706,0,0.29025,0.2866211,0.29025,-0.9848633,0.29025,-0.1914063,0.29025,14.57317,0.29025,-6.95122,0.29025,-18.10976,0.03414706,0,0.29025,0.2246094,0.29025,-1.009766,0.29025,-0.175293,0.29025,-3.963415,0.29025,-6.646342,0.29025,-7.195122,0.08292858,0,0.08292858,0,0.08292858,0,0.08292858,0,0.08292858,0,0.08292858,0,0.08292858,0,0.08292858,0,0.03414706,0,0.29025,-1.037109,0.29025,-0.001464844,0.29025,-0.05175781,0.29025,-27.31707,0.29025,-1.219512,0.29025,-3.597561,0.01935,0
0.02284615,0,0.297,-1.156473,0.297,-0.1156473,0.297,-0.3854911,0.03494118,0,0.297,0.3134766,0.297,-0.9023438,0.297,0.2324219,0.297,53.41463,0.297,7.865854,0.297,-13.04878,0.03494118,0,0.297,-0.8945313,0.297,-0.3442383,0.297,0.3041992,0.297,-14.45122,0.297,6.280488,0.297,6.219512,0.03494118,0,0.297,-0.8774414,0.297,-0.4902344,0.297,-0.3491211,0.297,5.060976,0.297,10.73171,0.297,-8.780488,0.03494118,0,0.297,-0.09375,0.297,-0.4838867,0.297,0.8652344,0.297,10.97561,0.297,-5.609756,0.297,14.63415,0.03494118,0,0.297,0.2265625,0.297,-0.9907227,0.297,-0.3857422,0.297,-4.268293,0.297,-9.695122,0.297,-6.402439,0.03494118,0,0.297,0.2739258,0.297,-0.9833984,0.297,-0.184082,0.297,13.84146,0.297,-5.54878,0.297,-17.37805,0.03494118,0,0.297,0.2241211,0.297,-1.001953,0.297,-0.1757813,0.297,-3.353659,0.297,-6.829268,0.297,-7.378049,0.08485714,0,0.08485714,0,0.08485714,0,0.08485714,0,0.08485714,0,0.08485714,0,0.08485714,0,0.08485714,0,0.03494118,0,0.297,-1.032715,0.297,-0.009765625,0.297,-0.05517578,0.297,-26.76829,0.297,-1.768293,0.297,-3.414634,0.0198,0
0.02336538,0,0.30375,-1.117924,0.30375,-0.1156473,0.30375,-0.3854911,0.03573529,0,0.30375,0.3115234,0.30375,-0.902832,0.30375,0.2387695,0.30375,52.19512,0.30375,8.841464,0.30375,-11.82927,0.03573529,0,0.30375,-0.8911133,0.30375,-0.3500977,0.30375,0.309082,0.30375,-14.69512,0.30375,6.158537,0.30375,6.341464,0.03573529,0,0.30375,-0.8671875,0.30375,-0.4916992,0.30375,-0.3549805,0.30375,5,0.30375,10.79268,0.30375,-9.085366,0.03573529,0,0.30375,-0.06494141,0.30375,-0.4838867,0.30375,0.8691406,0.30375,11.70732,0.30375,-8.292683,0.30375,14.69512,0.03573529,0,0.30375,0.2241211,0.30375,-0.9912109,0.30375,-0.3916016,0.30375,-3.658537,0.30375,-8.841464,0.30375,-5.670732,0.03573529,0,0.30375,0.2670898,0.30375,-0.9824219,0.30375,-0.1816406,0.30375,13.59756,0.30375,-4.756098,0.30375,-17.19512,0.03573529,0,0.30375,0.2324219,0.30375,-0.9916992,0.30375,-0.1704102,0.30375,-3.780488,0.30375,-6.036585,0.30375,-7.804878,0.08678572,0,0.08678572,0,0.08678572,0,0.08678572,0,0.08678572,0,0.08678572,0,0.08678572,0,0.08678572,0,0.03573529,0,0.30375,-1.028809,0.30375,-0.01269531,0.30375,-0.05419922,0.30375,-26.03659,0.30375,-2.195122,0.30375,-3.292683,0.02025,0
0.02388461,0,0.3105,-1.156473,0.3105,-0.1156473,0.3105,-0.3854911,0.03652941,0,0.3105,0.3178711,0.3105,-0.9008789,0.3105,0.2597656,0.3105,52.13415,0.3105,4.878049,0.3105,-10.73171,0.03652941,0,0.3105,-0.8911133,0.3105,-0.3510742,0.3105,0.3085938,0.3105,-14.20732,0.3105,6.341464,0.3105,6.280488,0.03652941,0,0.3105,-0.8613281,0.3105,-0.4897461,0.3105,-0.3569336,0.3105,4.207317,0.3105,10.91463,0.3105,-9.512196,0.03652941,0,0.3105,-0.04052734,0.3105,-0.4799805,0.3105,0.8657227,0.3105,12.07317,0.3105,-8.658537,0.3105,14.32927,0.03652941,0,0.3105,0.2255859,0.3105,-0.9868164,0.3105,-0.3916016,0.3105,-3.353659,0.3105,-7.682927,0.3105,-5.060976,0.03652941,0,0.3105,0.2529297,0.3105,-0.9785156,0.3105,-0.1748047,0.3105,12.98781,0.3105,-4.390244,0.3105,-16.46342,0.03652941,0,0.3105,0.2353516,0.3105,-0.987793,0.3105,-0.1655273,0.3105,-4.02439,0.3105,-4.085366,0.3105,-7.804878,0.08871429,0,0.08871429,0,0.08871429,0,0.08871429,0,0.08871429,0,0.08871429,0,0.08871429,0,0.08871429,0,0.03652941,0,0.3105,-1.026367,0.3105,-0.01806641,0.3105,-0.05273438,0.3105,-25,0.3105,-2.134146,0.3105,-3.353659,0.0207,0
0.02440385,0,0.31725,-1.156473,0.31725,-0.1156473,0.31725,-0.346942,0.03732353,0,0.31725,0.3330078,0.31725,-0.8979492,0.31725,0.2709961,0.31725,52.62195,0.31725,-0.7926829,0.31725,-10.54878,0.03732353,0,0.31725,-0.8867188,0.31725,-0.3540039,0.31725,0.3100586,0.31725,-13.47561,0.31725,6.341464,0.31725,5.914634,0.03732353,0,0.31725,-0.8544922,0.31725,-0.4887695,0.31725,-0.3637695,0.31725,3.597561,0.31725,10.67073,0.31725,-9.817074,0.03732353,0,0.31725,-0.03417969,0.31725,-0.4707031,0.31725,0.8530273,0.31725,11.58537,0.31725,-7.439024,0.31725,14.02439,0.03732353,0,0.31725,0.2236328,0.31725,-0.9868164,0.31725,-0.4013672,0.31725,-3.292683,0.31725,-6.585366,0.31725,-4.45122,0.03732353,0,0.31725,0.2509766,0.31725,-0.9702148,0.31725,-0.1806641,0.31725,12.80488,0.31725,-3.231707,0.31725,-15.73171,0.03732353,0,0.31725,0.246582,0.31725,-0.9824219,0.31725,-0.1650391,0.31725,-4.207317,0.31725,-3.231707,0.31725,-8.292683,0.09064286,0,0.09064286,0,0.09064286,0,0.09064286,0,0.09064286,0,0.09064286,0,0.09064286,0,0.09064286,0,0.03732353,0,0.31725,-1.021973,0.31725,-0.02148438,0.31725,-0.04882813,0.31725,-24.14634,0.31725,-2.012195,0.31725,-3.536585,0.02115,0
0.02492308,0,0.324,-1.195022,0.324,-0.1156473,0.324,-0.346942,0.03811765,0,0.324,0.3334961,0.324,-0.890625,0.324,0.2636719,0.324,51.82927,0.324,-4.512195,0.324,-10.91463,0.03811765,0,0.324,-0.8911133,0.324,-0.3500977,0.324,0.3125,0.324,-12.7439,0.324,6.585366,0.324,5.365854,0.03811765,0,0.324,-0.8530273,0.324,-0.4921875,0.324,-0.3671875,0.324,3.04878,0.324,10.12195,0.324,-9.817074,0.03811765,0,0.324,-0.04394531,0.324,-0.4667969,0.324,0.8544922,0.324,10.79268,0.324,-4.756098,0.324,12.7439,0.03811765,0,0.324,0.2236328,0.324,-0.9819336,0.324,-0.3994141,0.324,-3.04878,0.324,-5.792683,0.324,-3.719512,0.03811765,0,0.324,0.246582,0.324,-0.9619141,0.324,-0.1879883,0.324,12.19512,0.324,-1.646341,0.324,-14.7561,0.03811765,0,0.324,0.237793,0.324,-0.9873047,0.324,-0.1591797,0.324,-4.268293,0.324,-1.95122,0.324,-9.390244,0.09257143,0,0.09257143,0,0.09257143,0,0.09257143,0,0.09257143,0,0.09257143,0,0.09257143,0,0.09257143,0,0.03811765,0,0.324,-1.01416,0.324,-0.02734375,0.324,-0.04736328,0.324,-23.65854,0.324,-1.890244,0.324,-3.597561,0.0216,0
0.02544231,0,0.33075,-1.195022,0.33075,-0.1156473,0.33075,-0.346942,0.03891176,0,0.33075,0.340332,0.33075,-0.8823242,0.33075,0.2587891,0.33075,50.12195,0.33075,-3.963415,0.33075,-10,0.03891176,0,0.33075,-0.8911133,0.33075,-0.3535156,0.33075,0.3125,0.33075,-12.07317,0.33075,7.256098,0.33075,5.060976,0.03891176,0,0.33075,-0.8520508,0.33075,-0.4946289,0.33075,-0.3652344,0.33075,3.963415,0.33075,9.695122,0.33075,-8.963415,0.03891176,0,0.33075,-0.05371094,0.33075,-0.46875,0.33075,0.8564453,0.33075,10.48781,0.33075,-4.329268,0.33075,11.46342,0.03891176,0,0.33075,0.2202148,0.33075,-0.9833984,0.33075,-0.3989258,0.33075,-2.743902,0.33075,-4.756098,0.33075,-3.231707,0.03891176,0,0.33075,0.2412109,0.33075,-0.956543,0.33075,-0.1933594,0.33075,11.64634,0.33075,-0.5487805,0.33075,-13.96342,0.03891176,0,0.33075,0.2250977,0.33075,-0.9858398,0.33075,-0.1601563,0.33075,-4.329268,0.33075,-3.231707,0.33075,-10.18293,0.09450001,0,0.09450001,0,0.09450001,0,0.09450001,0,0.09450001,0,0.09450001,0,0.09450001,0,0.09450001,0,0.03891176,0,0.33075,-1.011719,0.33075,-0.03710938,0.33075,-0.04931641,0.33075,-22.62195,0.33075,-1.463415,0.33075,-3.536585,0.02205,0
0.02596154,0,0.3375,-1.195022,0.3375,-0.1156473,0.3375,-0.346942,0.03970588,0,0.3375,0.3457031,0.3375,-0.8837891,0.3375,0.253418,0.3375,48.41463,0.3375,-2.195122,0.3375,-9.329268,0.03970588,0,0.3375,-0.8959961,0.3375,-0.3554688,0.3375,0.3129883,0.3375,-10.91463,0.3375,8.04878,0.3375,4.817073,0.03970588,0,0.3375,-0.8564453,0.3375,-0.4946289,0.3375,-0.3623047,0.3375,5.792683,0.3375,9.878049,0.3375,-7.865854,0.03970588,0,0.3375,-0.07128906,0.3375,-0.4760742,0.3375,0.8637695,0.3375,11.15854,0.3375,-5.060976,0.3375,10.42683,0.03970588,0,0.3375,0.2119141,0.3375,-0.9760742,0.3375,-0.3984375,0.3375,-2.317073,0.3375,-4.390244,0.3375,-2.926829,0.03970588,0,0.3375,0.2407227,0.3375,-0.9536133,0.3375,-0.1938477,0.3375,11.09756,0.3375,0.2439024,0.3375,-13.23171,0.03970588,0,0.3375,0.2001953,0.3375,-0.9887695,0.3375,-0.1699219,0.3375,-4.756098,0.3375,-4.268293,0.3375,-10.36585,0.09642857,0,0.09642857,0,0.09642857,0,0.09642857,0,0.09642857,0,0.09642857,0,0.09642857,0,0.09642857,0,0.03970588,0,0.3375,-1.006348,0.3375,-0.04394531,0.3375,-0.05175781,0.3375,-21.76829,0.3375,-0.7926829,0.3375,-3.04878,0.0225,0
0.02648077,0,0.34425,-1.195022,0.34425,-0.1156473,0.34425,-0.3083929,0.0405,0,0.34425,0.3505859,0.34425,-0.8779297,0.34425,0.2553711,0.34425,46.58537,0.34425,-2.682927,0.34425,-9.085366,0.0405,0,0.34425,-0.890625,0.34425,-0.3500977,0.34425,0.3154297,0.34425,-9.878049,0.34425,7.987805,0.34425,4.512195,0.0405,0,0.34425,-0.8579102,0.34425,-0.496582,0.34425,-0.3647461,0.34425,7.195122,0.34425,10,0.34425,-6.95122,0.0405,0,0.34425,-0.078125,0.34425,-0.4804688,0.34425,0.8623047,0.34425,11.46342,0.34425,-5.365854,0.34425,9.878049,0.0405,0,0.34425,0.2080078,0.34425,-0.9790039,0.34425,-0.3950195,0.34425,-2.012195,0.34425,-3.414634,0.34425,-2.560976,0.0405,0,0.34425,0.2421875,0.34425,-0.9550781,0.34425,-0.199707,0.34425,11.28049,0.34425,0.2439024,0.34425,-12.2561,0.0405,0,0.34425,0.1796875,0.34425,-0.9882813,0.34425,-0.1586914,0.34425,-5.060976,0.34425,-6.158537,0.34425,-10.54878,0.09835715,0,0.09835715,0,0.09835715,0,0.09835715,0,0.09835715,0,0.09835715,0,0.09835715,0,0.09835715,0,0.0405,0,0.34425,-1.004395,0.34425,-0.04980469,0.34425,-0.0546875,0.34425,-20.97561,0.34425,-0.06097561,0.34425,-2.621951,0.02295,0
0.027,0,0.351,-1.195022,0.351,-0.07709821,0.351,-0.3083929,0.04129412,0,0.351,0.3647461,0.351,-0.8730469,0.351,0.2705078,0.351,45.18293,0.351,-6.036585,0.351,-8.963415,0.04129412,0,0.351,-0.887207,0.351,-0.3461914,0.351,0.3144531,0.351,-9.390244,0.351,7.317073,0.351,3.963415,0.04129412,0,0.351,-0.8613281,0.351,-0.4941406,0.351,-0.3637695,0.351,10.48781,0.351,10.42683,0.351,-5,0.04129412,0,0.351,-0.078125,0.351,-0.480957,0.351,0.8637695,0.351,11.40244,0.351,-5.121951,0.351,9.634147,0.04129412,0,0.351,0.2036133,0.351,-0.9760742,0.351,-0.3901367,0.351,-1.097561,0.351,-2.804878,0.351,-2.073171,0.04129412,0,0.351,0.2392578,0.351,-0.9541016,0.351,-0.2016602,0.351,11.40244,0.351,1.463415,0.351,-10.85366,0.04129412,0,0.351,0.1606445,0.351,-0.9833984,0.351,-0.1577148,0.351,-5.609756,0.351,-8.841464,0.351,-11.15854,0.1002857,0,0.1002857,0,0.1002857,0,0.1002857,0,0.1002857,0,0.1002857,0,0.1002857,0,0.1002857,0,0.04129412,0,0.351,-1.006348,0.351,-0.04882813,0.351,-0.04980469,0.351,-20.42683,0.351,0.4878049,0.351,-2.5,0.0234,0
0.02751923,0,0.35775,-1.156473,0.35775,-0.07709821,0.35775,-0.3083929,0.04208823,0,0.35775,0.3823242,0.35775,-0.8774414,0.35775,0.2875977,0.35775,44.32927,0.35775,-10.18293,0.35775,-8.902439,0.04208823,0,0.35775,-0.8789063,0.35775,-0.3461914,0.35775,0.3105469,0.35775,-9.207317,0.35775,6.585366,0.35775,3.353659,0.04208823,0,0.35775,-0.8583984,0.35775,-0.4931641,0.35775,-0.3657227,0.35775,12.80488,0.35775,10.48781,0.35775,-3.536585,0.04208823,0,0.35775,-0.07421875,0.35775,-0.4819336,0.35775,0.8603516,0.35775,11.64634,0.35775,-5.426829,0.35775,8.902439,0.04208823,0,0.35775,0.2001953,0.35775,-0.9765625,0.35775,-0.3886719,0.35775,-0.4268293,0.35775,-2.439024,0.35775,-1.463415,0.04208823,0,0.35775,0.237793,0.35775,-0.953125,0.35775,-0.1933594,0.35775,11.70732,0.35775,2.804878,0.35775,-9.512196,0.04208823,0,0.35775,0.1606445,0.35775,-0.9780273,0.35775,-0.1499023,0.35775,-5.97561,0.35775,-12.62195,0.35775,-11.82927,0.1022143,0,0.1022143,0,0.1022143,0,0.1022143,0,0.1022143,0,0.1022143,0,0.1022143,0,0.1022143,0,0.04208823,0,0.35775,-1.005859,0.35775,-0.04589844,0.35775,-0.05029297,0.35775,-19.5122,0.35775,1.036585,0.35775,-2.378049,0.02385,0
0.02803846,0,0.3645,-1.156473,0.3645,-0.07709821,0.3645,-0.2698438,0.04288235,0,0.3645,0.3979492,0.3645,-0.8808594,0.3645,0.3115234,0.3645,44.2683,0.3645,-13.04878,0.3645,-8.963415,0.04288235,0,0.3645,-0.871582,0.3645,-0.3466797,0.3645,0.3071289,0.3645,-8.963415,0.3645,6.95122,0.3645,2.621951,0.04288235,0,0.3645,-0.8540039,0.3645,-0.484375,0.3645,-0.3710938,0.3645,13.84146,0.3645,9.634147,0.3645,-2.560976,0.04288235,0,0.3645,-0.06494141,0.3645,-0.4824219,0.3645,0.8632813,0.3645,12.31707,0.3645,-6.219512,0.3645,8.04878,0.04288235,0,0.3645,0.2011719,0.3645,-0.9741211,0.3645,-0.3852539,0.3645,0.1829268,0.3645,-2.195122,0.3645,-0.9146342,0.04288235,0,0.3645,0.2338867,0.3645,-0.9501953,0.3645,-0.1845703,0.3645,11.95122,0.3645,4.634146,0.3645,-8.231708,0.04288235,0,0.3645,0.1787109,0.3645,-0.9711914,0.3645,-0.1640625,0.3645,-5.609756,0.3645,-15.97561,0.3645,-12.07317,0.1041429,0,0.1041429,0,0.1041429,0,0.1041429,0,0.1041429,0,0.1041429,0,0.1041429,0,0.1041429,0,0.04288235,0,0.3645,-0.9990234,0.3645,-0.04052734,0.3645,-0.05419922,0.3645,-18.47561,0.3645,1.219512,0.3645,-2.195122,0.0243,0
0.02855769,0,0.37125,-1.156473,0.37125,-0.07709821,0.37125,-0.3083929,0.04367647,0,0.37125,0.4116211,0.37125,-0.8823242,0.37125,0.3461914,0.37125,44.7561,0.37125,-14.32927,0.37125,-8.658537,0.04367647,0,0.37125,-0.8657227,0.37125,-0.3491211,0.37125,0.3056641,0.37125,-8.719512,0.37125,7.865854,0.37125,1.768293,0.04367647,0,0.37125,-0.8510742,0.37125,-0.4794922,0.37125,-0.3730469,0.37125,13.90244,0.37125,9.329268,0.37125,-1.95122,0.04367647,0,0.37125,-0.05810547,0.37125,-0.4799805,0.37125,0.8608398,0.37125,13.04878,0.37125,-5.853659,0.37125,7.073171,0.04367647,0,0.37125,0.2060547,0.37125,-0.9711914,0.37125,-0.3842773,0.37125,0.4878049,0.37125,-1.341463,0.37125,-0.6097561,0.04367647,0,0.37125,0.2348633,0.37125,-0.9492188,0.37125,-0.184082,0.37125,12.07317,0.37125,5.365854,0.37125,-7.926829,0.04367647,0,0.37125,0.2124023,0.37125,-0.9692383,0.37125,-0.1645508,0.37125,-5.792683,0.37125,-18.04878,0.37125,-12.62195,0.1060714,0,0.1060714,0,0.1060714,0,0.1060714,0,0.1060714,0,0.1060714,0,0.1060714,0,0.1060714,0,0.04367647,0,0.37125,-1.00293,0.37125,-0.03466797,0.37125,-0.05566406,0.37125,-17.31707,0.37125,1.036585,0.37125,-2.073171,0.02475,0
0.02907692,0,0.378,-1.195022,0.378,-0.07709821,0.378,-0.3083929,0.04447059,0,0.378,0.4116211,0.378,-0.8769531,0.378,0.3691406,0.378,44.93903,0.378,-14.7561,0.378,-8.658537,0.04447059,0,0.378,-0.8623047,0.378,-0.3452148,0.378,0.3110352,0.378,-8.719512,0.378,8.47561,0.378,0.7317073,0.04447059,0,0.378,-0.8486328,0.378,-0.4746094,0.378,-0.3696289,0.378,14.5122,0.378,9.756098,0.378,-1.341463,0.04447059,0,0.378,-0.06835938,0.378,-0.4741211,0.378,0.8579102,0.378,13.35366,0.378,-4.329268,0.378,6.036585,0.04447059,0,0.378,0.206543,0.378,-0.9697266,0.378,-0.3842773,0.378,0.7317073,0.378,-0.3658537,0.378,-0.2439024,0.04447059,0,0.378,0.2368164,0.378,-0.9477539,0.378,-0.1845703,0.378,12.31707,0.378,5.731708,0.378,-7.256098,0.04447059,0,0.378,0.2373047,0.378,-0.9736328,0.378,-0.1606445,0.378,-5.060976,0.378,-19.57317,0.378,-13.23171,0.108,0,0.108,0,0.108,0,0.108,0,0.108,0,0.108,0,0.108,0,0.108,0,0.04447059,0,0.378,-0.9980469,0.378,-0.03320313,0.378,-0.06152344,0.378,-16.70732,0.378,1.463415,0.378,-1.95122,0.0252,0
0.02959615,0,0.38475,-1.195022,0.38475,-0.07709821,0.38475,-0.2698438,0.04526471,0,0.38475,0.4111328,0.38475,-0.8725586,0.38475,0.378418,0.38475,44.39024,0.38475,-15.30488,0.38475,-8.231708,0.04526471,0,0.38475,-0.8613281,0.38475,-0.3398438,0.38475,0.3144531,0.38475,-9.268292,0.38475,8.658537,0.38475,-0.1219512,0.04526471,0,0.38475,-0.8510742,0.38475,-0.4746094,0.38475,-0.362793,0.38475,16.70732,0.38475,10.06098,0.38475,-0.5487805,0.04526471,0,0.38475,-0.08300781,0.38475,-0.4638672,0.38475,0.8505859,0.38475,13.29268,0.38475,-3.04878,0.38475,4.817073,0.04526471,0,0.38475,0.206543,0.38475,-0.9658203,0.38475,-0.3852539,0.38475,0.9756098,0.38475,0.3658537,0.38475,-0.1829268,0.04526471,0,0.38475,0.2407227,0.38475,-0.9487305,0.38475,-0.1938477,0.38475,12.07317,0.38475,5.060976,0.38475,-6.646342,0.04526471,0,0.38475,0.2451172,0.38475,-0.9785156,0.38475,-0.1772461,0.38475,-4.939024,0.38475,-21.21951,0.38475,-13.23171,0.1099286,0,0.1099286,0,0.1099286,0,0.1099286,0,0.1099286,0,0.1099286,0,0.1099286,0,0.1099286,0,0.04526471,0,0.38475,-0.9936523,0.38475,-0.03125,0.38475,-0.05761719,0.38475,-16.34146,0.38475,2.195122,0.38475,-1.646341,0.02565,0
0.03011538,0,0.3915,-1.195022,0.3915,-0.07709821,0.3915,-0.2698438,0.04605882,0,0.3915,0.4091797,0.3915,-0.8544922,0.3915,0.3789063,0.3915,42.7439,0.3915,-13.96342,0.3915,-7.987805,0.04605882,0,0.3915,-0.8618164,0.3915,-0.3383789,0.3915,0.3164063,0.3915,-9.573171,0.3915,8.719512,0.3915,-0.8536586,0.04605882,0,0.3915,-0.8496094,0.3915,-0.4658203,0.3915,-0.3676758,0.3915,18.41463,0.3915,10.30488,0.3915,0,0.04605882,0,0.3915,-0.09619141,0.3915,-0.4638672,0.3915,0.8447266,0.3915,13.71951,0.3915,-3.04878,0.3915,4.146341,0.04605882,0,0.3915,0.2084961,0.3915,-0.9584961,0.3915,-0.3930664,0.3915,1.219512,0.3915,1.158537,0.3915,0.3658537,0.04605882,0,0.3915,0.2519531,0.3915,-0.9492188,0.3915,-0.1889648,0.3915,11.82927,0.3915,3.658537,0.3915,-6.219512,0.04605882,0,0.3915,0.2573242,0.3915,-0.9770508,0.3915,-0.1943359,0.3915,-4.45122,0.3915,-22.98781,0.3915,-13.10976,0.1118571,0,0.1118571,0,0.1118571,0,0.1118571,0,0.1118571,0,0.1118571,0,0.1118571,0,0.1118571,0,0.04605882,0,0.3915,-0.9882813,0.3915,-0.03076172,0.3915,-0.05908203,0.3915,-15.91463,0.3915,2.378049,0.3915,-1.341463,0.0261,0
0.03063462,0,0.39825,-1.156473,0.39825,-0.07709821,0.39825,-0.2698438,0.04685294,0,0.39825,0.4116211,0.39825,-0.8354492,0.39825,0.3686523,0.39825,41.09756,0.39825,-10.06098,0.39825,-7.926829,0.04685294,0,0.39825,-0.8564453,0.39825,-0.3374023,0.39825,0.3164063,0.39825,-9.634147,0.39825,8.780488,0.39825,-1.036585,0.04685294,0,0.39825,-0.8442383,0.39825,-0.4624023,0.39825,-0.3686523,0.39825,18.96342,0.39825,10.12195,0.39825,-0.06097561,0.04685294,0,0.39825,-0.1079102,0.39825,-0.4604492,0.39825,0.8413086,0.39825,14.14634,0.39825,-3.902439,0.39825,3.780488,0.04685294,0,0.39825,0.2055664,0.39825,-0.9555664,0.39825,-0.3984375,0.39825,1.646341,0.39825,1.768293,0.39825,0.6097561,0.04685294,0,0.39825,0.2719727,0.39825,-0.953125,0.39825,-0.1870117,0.39825,11.70732,0.39825,2.439024,0.39825,-5.853659,0.04685294,0,0.39825,0.2783203,0.39825,-0.9667969,0.39825,-0.2070313,0.39825,-3.780488,0.39825,-25.06098,0.39825,-13.53659,0.1137857,0,0.1137857,0,0.1137857,0,0.1137857,0,0.1137857,0,0.1137857,0,0.1137857,0,0.1137857,0,0.04685294,0,0.39825,-0.9829102,0.39825,-0.03320313,0.39825,-0.05566406,0.39825,-15.12195,0.39825,2.5,0.39825,-1.280488,0.02655,0
0.03115385,0,0.405,-1.156473,0.405,-0.07709821,0.405,-0.2698438,0.04764706,0,0.405,0.4121094,0.405,-0.8173828,0.405,0.3554688,0.405,40.06098,0.405,-5.060976,0.405,-8.109756,0.04764706,0,0.405,-0.8500977,0.405,-0.3305664,0.405,0.315918,0.405,-9.573171,0.405,8.902439,0.405,-1.768293,0.04764706,0,0.405,-0.8364258,0.405,-0.453125,0.405,-0.3754883,0.405,17.62195,0.405,9.756098,0.405,0.1219512,0.04764706,0,0.405,-0.1044922,0.405,-0.4594727,0.405,0.8408203,0.405,14.45122,0.405,-4.817073,0.405,3.963415,0.04764706,0,0.405,0.2016602,0.405,-0.9487305,0.405,-0.4101563,0.405,2.195122,0.405,1.95122,0.405,0.7317073,0.04764706,0,0.405,0.2851563,0.405,-0.9555664,0.405,-0.1791992,0.405,11.64634,0.405,1.829268,0.405,-6.097561,0.04764706,0,0.405,0.2890625,0.405,-0.965332,0.405,-0.2006836,0.405,-4.634146,0.405,-25.2439,0.405,-13.23171,0.1157143,0,0.1157143,0,0.1157143,0,0.1157143,0,0.1157143,0,0.1157143,0,0.1157143,0,0.1157143,0,0.04764706,0,0.405,-0.9770508,0.405,-0.03662109,0.405,-0.04931641,0.405,-14.63415,0.405,3.109756,0.405,-1.341463,0.027,0
0.03167308,0,0.41175,-1.156473,0.41175,-0.07709821,0.41175,-0.2312946,0.04844118,0,0.41175,0.4150391,0.41175,-0.7998047,0.41175,0.331543,0.41175,38.04878,0.41175,-0.6097561,0.41175,-7.804878,0.04844118,0,0.41175,-0.8481445,0.41175,-0.3330078,0.41175,0.3212891,0.41175,-10,0.41175,8.597561,0.41175,-2.134146,0.04844118,0,0.41175,-0.8271484,0.41175,-0.4521484,0.41175,-0.3798828,0.41175,15.06098,0.41175,9.207317,0.41175,-0.1219512,0.04844118,0,0.41175,-0.09472656,0.41175,-0.4589844,0.41175,0.8427734,0.41175,14.57317,0.41175,-4.939024,0.41175,4.146341,0.04844118,0,0.41175,0.1899414,0.41175,-0.9448242,0.41175,-0.418457,0.41175,2.439024,0.41175,1.829268,0.41175,0.9756098,0.04844118,0,0.41175,0.3007813,0.41175,-0.9609375,0.41175,-0.1723633,0.41175,11.95122,0.41175,1.585366,0.41175,-6.341464,0.04844118,0,0.41175,0.2988281,0.41175,-0.965332,0.41175,-0.1962891,0.41175,-4.573171,0.41175,-24.5122,0.41175,-12.86585,0.1176429,0,0.1176429,0,0.1176429,0,0.1176429,0,0.1176429,0,0.1176429,0,0.1176429,0,0.1176429,0,0.04844118,0,0.41175,-0.9790039,0.41175,-0.03710938,0.41175,-0.04589844,0.41175,-13.90244,0.41175,4.329268,0.41175,-1.52439,0.02745,0
0.03219231,0,0.4185,-1.156473,0.4185,-0.07709821,0.4185,-0.2312946,0.04923529,0,0.4185,0.4208984,0.4185,-0.7817383,0.4185,0.3168945,0.4185,35.36586,0.4185,3.353659,0.4185,-7.317073,0.04923529,0,0.4185,-0.8486328,0.4185,-0.3344727,0.4185,0.3222656,0.4185,-10.48781,0.4185,8.292683,0.4185,-2.134146,0.04923529,0,0.4185,-0.8237305,0.4185,-0.453125,0.4185,-0.3813477,0.4185,13.71951,0.4185,8.780488,0.4185,-0.2439024,0.04923529,0,0.4185,-0.08886719,0.4185,-0.4516602,0.4185,0.8447266,0.4185,14.69512,0.4185,-4.268293,0.4185,4.146341,0.04923529,0,0.4185,0.1821289,0.4185,-0.9404297,0.4185,-0.425293,0.4185,2.804878,0.4185,2.256098,0.4185,1.52439,0.04923529,0,0.4185,0.3041992,0.4185,-0.9633789,0.4185,-0.1723633,0.4185,12.13415,0.4185,1.280488,0.4185,-7.012195,0.04923529,0,0.4185,0.3071289,0.4185,-0.9599609,0.4185,-0.2128906,0.4185,-4.390244,0.4185,-24.81707,0.4185,-12.7439,0.1195714,0,0.1195714,0,0.1195714,0,0.1195714,0,0.1195714,0,0.1195714,0,0.1195714,0,0.1195714,0,0.04923529,0,0.4185,-0.9819336,0.4185,-0.03027344,0.4185,-0.04785156,0.4185,-13.29268,0.4185,4.634146,0.4185,-1.646341,0.0279,0
0.03271154,0,0.42525,-1.233571,0.42525,-0.07709821,0.42525,-0.2698438,0.05002941,0,0.42525,0.4223633,0.42525,-0.7724609,0.42525,0.3144531,0.42525,32.80488,0.42525,7.012195,0.42525,-7.5,0.05002941,0,0.42525,-0.8510742,0.42525,-0.3383789,0.42525,0.3266602,0.42525,-10.91463,0.42525,7.865854,0.42525,-2.317073,0.05002941,0,0.42525,-0.8251953,0.42525,-0.4560547,0.42525,-0.3803711,0.42525,11.89024,0.42525,8.597561,0.42525,-0.5487805,0.05002941,0,0.42525,-0.09033203,0.42525,-0.4501953,0.42525,0.8427734,0.42525,14.5122,0.42525,-3.414634,0.42525,3.719512,0.05002941,0,0.42525,0.1708984,0.42525,-0.9384766,0.42525,-0.4282227,0.42525,2.804878,0.42525,2.865854,0.42525,2.256098,0.05002941,0,0.42525,0.3085938,0.42525,-0.9624023,0.42525,-0.1762695,0.42525,11.95122,0.42525,1.52439,0.42525,-7.682927,0.05002941,0,0.42525,0.3071289,0.42525,-0.9541016,0.42525,-0.2241211,0.42525,-5.243903,0.42525,-25,0.42525,-12.43902,0.1215,0,0.1215,0,0.1215,0,0.1215,0,0.1215,0,0.1215,0,0.1215,0,0.1215,0,0.05002941,0,0.42525,-0.9882813,0.42525,-0.02783203,0.42525,-0.05029297,0.42525,-12.92683,0.42525,4.939024,0.42525,-1.585366,0.02835,0
0.03323077,0,0.432,-1.272121,0.432,-0.03854911,0.432,-0.2698438,0.05082353,0,0.432,0.4199219,0.432,-0.7695313,0.432,0.3168945,0.432,30.79268,0.432,10.79268,0.432,-7.804878,0.05082353,0,0.432,-0.8544922,0.432,-0.3378906,0.432,0.3295898,0.432,-11.09756,0.432,7.5,0.432,-2.560976,0.05082353,0,0.432,-0.828125,0.432,-0.456543,0.432,-0.3813477,0.432,11.52439,0.432,7.987805,0.432,-0.1219512,0.05082353,0,0.432,-0.09375,0.432,-0.4516602,0.432,0.8447266,0.432,13.96342,0.432,-2.5,0.432,3.414634,0.05082353,0,0.432,0.1611328,0.432,-0.9394531,0.432,-0.4282227,0.432,2.621951,0.432,3.414634,0.432,2.317073,0.05082353,0,0.432,0.309082,0.432,-0.9541016,0.432,-0.1821289,0.432,11.82927,0.432,2.317073,0.432,-8.170732,0.05082353,0,0.432,0.3203125,0.432,-0.9550781,0.432,-0.1962891,0.432,-5.731708,0.432,-24.69512,0.432,-12.0122,0.1234286,0,0.1234286,0,0.1234286,0,0.1234286,0,0.1234286,0,0.1234286,0,0.1234286,0,0.1234286,0,0.05082353,0,0.432,-0.9892578,0.432,-0.02587891,0.432,-0.0546875,0.432,-13.17073,0.432,5.304878,0.432,-1.280488,0.0288,0
0.03375,0,0.43875,-1.31067,0.43875,-0.03854911,0.43875,-0.3083929,0.05161764,0,0.43875,0.4140625,0.43875,-0.7788086,0.43875,0.3325195,0.43875,29.7561,0.43875,13.78049,0.43875,-8.04878,0.05161764,0,0.43875,-0.862793,0.43875,-0.3349609,0.43875,0.3305664,0.43875,-10.91463,0.43875,6.646342,0.43875,-3.04878,0.05161764,0,0.43875,-0.8320313,0.43875,-0.4545898,0.43875,-0.3808594,0.43875,12.5,0.43875,7.621952,0.43875,0.1219512,0.05161764,0,0.43875,-0.09472656,0.43875,-0.4501953,0.43875,0.8398438,0.43875,13.41463,0.43875,-1.52439,0.43875,3.292683,0.05161764,0,0.43875,0.1503906,0.43875,-0.9423828,0.43875,-0.4262695,0.43875,2.378049,0.43875,3.47561,0.43875,2.560976,0.05161764,0,0.43875,0.309082,0.43875,-0.9492188,0.43875,-0.1801758,0.43875,11.70732,0.43875,3.963415,0.43875,-8.963415,0.05161764,0,0.43875,0.3276367,0.43875,-0.949707,0.43875,-0.1865234,0.43875,-5.670732,0.43875,-23.23171,0.43875,-11.89024,0.1253572,0,0.1253572,0,0.1253572,0,0.1253572,0,0.1253572,0,0.1253572,0,0.1253572,0,0.1253572,0,0.05161764,0,0.43875,-0.9882813,0.43875,-0.02880859,0.43875,-0.05419922,0.43875,-14.32927,0.43875,6.158537,0.43875,-0.8536586,0.02925,0
0.03426923,0,0.4455,-1.349219,0.4455,-0.03854911,0.4455,-0.3083929,0.05241176,0,0.4455,0.4082031,0.4455,-0.7944336,0.4455,0.3457031,0.4455,29.26829,0.4455,16.21951,0.4455,-8.292683,0.05241176,0,0.4455,-0.8564453,0.4455,-0.3339844,0.4455,0.3349609,0.4455,-10.30488,0.4455,6.829268,0.4455,-3.04878,0.05241176,0,0.4455,-0.8408203,0.4455,-0.4511719,0.4455,-0.3847656,0.4455,13.71951,0.4455,7.804878,0.4455,0.9756098,0.05241176,0,0.4455,-0.09863281,0.4455,-0.4472656,0.4455,0.8349609,0.4455,12.80488,0.4455,-1.341463,0.4455,3.292683,0.05241176,0,0.4455,0.1401367,0.4455,-0.9477539,0.4455,-0.4223633,0.4455,2.987805,0.4455,2.987805,0.4455,2.073171,0.05241176,0,0.4455,0.309082,0.4455,-0.949707,0.4455,-0.1767578,0.4455,11.82927,0.4455,4.634146,0.4455,-9.390244,0.05241176,0,0.4455,0.3354492,0.4455,-0.9438477,0.4455,-0.1826172,0.4455,-5.670732,0.4455,-21.28049,0.4455,-11.76829,0.1272857,0,0.1272857,0,0.1272857,0,0.1272857,0,0.1272857,0,0.1272857,0,0.1272857,0,0.1272857,0,0.05241176,0,0.4455,-0.9887695,0.4455,-0.02539063,0.4455,-0.05322266,0.4455,-14.87805,0.4455,6.707317,0.4455,-0.7926829,0.0297,0
0.03478846,0,0.45225,-1.349219,0.45225,-0.07709821,0.45225,-0.3083929,0.05320588,0,0.45225,0.3959961,0.45225,-0.8203125,0.45225,0.3554688,0.45225,28.96342,0.45225,18.10976,0.45225,-9.573171,0.05320588,0,0.45225,-0.855957,0.45225,-0.3383789,0.45225,0.3413086,0.45225,-8.963415,0.45225,8.170732,0.45225,-2.804878,0.05320588,0,0.45225,-0.8457031,0.45225,-0.4423828,0.45225,-0.3867188,0.45225,14.26829,0.45225,7.621952,0.45225,1.646341,0.05320588,0,0.45225,-0.09472656,0.45225,-0.4477539,0.45225,0.8349609,0.45225,12.19512,0.45225,-2.743902,0.45225,2.743902,0.05320588,0,0.45225,0.1391602,0.45225,-0.9487305,0.45225,-0.4174805,0.45225,3.292683,0.45225,1.768293,0.45225,1.036585,0.05320588,0,0.45225,0.3066406,0.45225,-0.9453125,0.45225,-0.1630859,0.45225,12.43902,0.45225,5.304878,0.45225,-10.30488,0.05320588,0,0.45225,0.3266602,0.45225,-0.9477539,0.45225,-0.1806641,0.45225,-5.365854,0.45225,-19.39024,0.45225,-11.70732,0.1292143,0,0.1292143,0,0.1292143,0,0.1292143,0,0.1292143,0,0.1292143,0,0.1292143,0,0.1292143,0,0.05320588,0,0.45225,-0.9902344,0.45225,-0.01904297,0.45225,-0.05761719,0.45225,-14.93902,0.45225,6.646342,0.45225,-1.158537,0.03015,0
0.03530769,0,0.459,-1.31067,0.459,-0.1156473,0.459,-0.2698438,0.054,0,0.459,0.3574219,0.459,-0.8603516,0.459,0.359375,0.459,29.45122,0.459,17.92683,0.459,-9.878049,0.054,0,0.459,-0.859375,0.459,-0.3413086,0.459,0.3325195,0.459,-8.353659,0.459,9.146341,0.459,-2.5,0.054,0,0.459,-0.8500977,0.459,-0.4345703,0.459,-0.3959961,0.459,13.78049,0.459,7.012195,0.459,2.317073,0.054,0,0.459,-0.07373047,0.459,-0.449707,0.459,0.8413086,0.459,12.2561,0.459,-6.829268,0.459,1.890244,0.054,0,0.459,0.1342773,0.459,-0.9501953,0.459,-0.4179688,0.459,4.207317,0.459,0.3658537,0.459,0.1219512,0.054,0,0.459,0.296875,0.459,-0.9418945,0.459,-0.1601563,0.459,13.04878,0.459,5.487805,0.459,-11.21951,0.054,0,0.459,0.3203125,0.459,-0.9458008,0.459,-0.1855469,0.459,-4.45122,0.459,-19.45122,0.459,-12.0122,0.1311429,0,0.1311429,0,0.1311429,0,0.1311429,0,0.1311429,0,0.1311429,0,0.1311429,0,0.1311429,0,0.054,0,0.459,-0.9902344,0.459,-0.01171875,0.459,-0.06201172,0.459,-14.5122,0.459,6.463415,0.459,-1.463415,0.0306,0
0.03582693,0,0.46575,-0.9251786,0.46575,-0.3083929,0.46575,0.03854911,0.05479412,0,0.46575,0.3383789,0.46575,-0.9013672,0.46575,0.340332,0.46575,30.73171,0.46575,17.07317,0.46575,-9.02439,0.05479412,0,0.46575,-0.8623047,0.46575,-0.3417969,0.46575,0.3032227,0.46575,-11.95122,0.46575,6.52439,0.46575,-2.804878,0.05479412,0,0.46575,-0.840332,0.46575,-0.4301758,0.46575,-0.3964844,0.46575,12.07317,0.46575,6.52439,0.46575,2.134146,0.05479412,0,0.46575,-0.04003906,0.46575,-0.4716797,0.46575,0.859375,0.46575,13.47561,0.46575,-13.41463,0.46575,0.3048781,0.05479412,0,0.46575,0.137207,0.46575,-0.9492188,0.46575,-0.4145508,0.46575,5.182927,0.46575,-1.158537,0.46575,-0.7317073,0.05479412,0,0.46575,0.2924805,0.46575,-0.9375,0.46575,-0.1616211,0.46575,13.10976,0.46575,5.304878,0.46575,-11.58537,0.05479412,0,0.46575,0.3134766,0.46575,-0.9462891,0.46575,-0.1791992,0.46575,-3.902439,0.46575,-19.14634,0.46575,-12.07317,0.1330714,0,0.1330714,0,0.1330714,0,0.1330714,0,0.1330714,0,0.1330714,0,0.1330714,0,0.1330714,0,0.05479412,0,0.46575,-0.9887695,0.46575,-0.02294922,0.46575,-0.06005859,0.46575,-15.2439,0.46575,6.707317,0.46575,-1.158537,0.03105,0
0.03634615,0,0.4725,-0.8480804,0.4725,-0.3083929,0.4725,-0.3083929,0.05558823,0,0.4725,0.3134766,0.4725,-0.9477539,0.4725,0.2954102,0.4725,32.0122,0.4725,14.02439,0.4725,-8.353659,0.05558823,0,0.4725,-0.8632813,0.4725,-0.3486328,0.4725,0.3032227,0.4725,-18.17073,0.4725,3.292683,0.4725,-3.597561,0.05558823,0,0.4725,-0.8388672,0.4725,-0.4296875,0.4725,-0.394043,0.4725,9.756098,0.4725,6.402439,0.4725,1.768293,0.05558823,0,0.4725,0.01074219,0.4725,-0.4770508,0.4725,0.8544922,0.4725,15.18293,0.4725,-15.42683,0.4725,-2.073171,0.05558823,0,0.4725,0.1469727,0.4725,-0.9472656,0.4725,-0.4140625,0.4725,6.646342,0.4725,-2.865854,0.4725,-1.402439,0.05558823,0,0.4725,0.2919922,0.4725,-0.9404297,0.4725,-0.1601563,0.4725,13.17073,0.4725,5.060976,0.4725,-11.82927,0.05558823,0,0.4725,0.3076172,0.4725,-0.9482422,0.4725,-0.1748047,0.4725,-4.085366,0.4725,-18.47561,0.4725,-11.76829,0.135,1.412329,0.135,0.02873465,0.135,0.01943838,0.135,0.02408651,0.135,0,0.135,0,0.135,0,0.135,0,0.05558823,0,0.4725,-0.9882813,0.4725,-0.02978516,0.4725,-0.05371094,0.4725,-15.12195,0.4725,7.073171,0.4725,-1.646341,0.0315,0
0.03686538,0,0.47925,-1.156473,0.47925,-0.3083929,0.47925,-0.1927455,0.05638235,0,0.47925,0.2705078,0.47925,-0.9643555,0.47925,0.284668,0.47925,34.39024,0.47925,4.02439,0.47925,-8.536586,0.05638235,0,0.47925,-0.8613281,0.47925,-0.3798828,0.47925,0.3334961,0.47925,-19.08537,0.47925,2.560976,0.47925,-4.268293,0.05638235,0,0.47925,-0.8291016,0.47925,-0.4326172,0.47925,-0.3828125,0.47925,7.378049,0.47925,6.341464,0.47925,0.8536586,0.05638235,0,0.47925,0.01660156,0.47925,-0.4555664,0.47925,0.8144531,0.47925,14.5122,0.47925,-11.40244,0.47925,-5.426829,0.05638235,0,0.47925,0.1586914,0.47925,-0.9404297,0.47925,-0.4165039,0.47925,7.865854,0.47925,-4.207317,0.47925,-2.134146,0.05638235,0,0.47925,0.300293,0.47925,-0.9467773,0.47925,-0.1591797,0.47925,13.23171,0.47925,4.756098,0.47925,-11.64634,0.05638235,0,0.47925,0.3041992,0.47925,-0.9516602,0.47925,-0.1762695,0.47925,-3.902439,0.47925,-17.37805,0.47925,-11.58537,0.1369286,1.415428,0.1369286,0.03028402,0.1369286,0.01943838,0.1369286,0.02408651,0.1369286,0,0.1369286,0,0.1369286,0,0.1369286,0,0.05638235,0,0.47925,-0.9936523,0.47925,-0.03710938,0.47925,-0.05517578,0.47925,-14.81707,0.47925,6.95122,0.47925,-2.439024,0.03195,0
0.03738461,0,0.486,-1.619063,0.486,-0.3083929,0.486,-0.03854911,0.05717647,0,0.486,0.1621094,0.486,-0.9458008,0.486,0.2368164,0.486,40.30488,0.486,-12.13415,0.486,-2.012195,0.05717647,0,0.486,-0.8647461,0.486,-0.4091797,0.486,0.3378906,0.486,-13.47561,0.486,1.52439,0.486,-4.817073,0.05717647,0,0.486,-0.8256836,0.486,-0.4433594,0.486,-0.3789063,0.486,5.54878,0.486,6.341464,0.486,0.3048781,0.05717647,0,0.486,0.001953125,0.486,-0.4389648,0.486,0.784668,0.486,11.21951,0.486,-9.939025,0.486,-8.719512,0.05717647,0,0.486,0.1782227,0.486,-0.9384766,0.486,-0.4179688,0.486,8.414635,0.486,-4.512195,0.486,-2.5,0.05717647,0,0.486,0.3071289,0.486,-0.9550781,0.486,-0.1645508,0.486,13.10976,0.486,5.304878,0.486,-11.40244,0.05717647,0,0.486,0.3012695,0.486,-0.9599609,0.486,-0.1801758,0.486,-3.963415,0.486,-14.45122,0.486,-11.40244,0.1388572,1.416977,0.1388572,0.0318334,0.1388572,0.017889,0.1388572,0.02563589,0.1388572,0,0.1388572,0,0.1388572,0,0.1388572,0,0.05717647,0,0.486,-0.9995117,0.486,-0.046875,0.486,-0.04931641,0.486,-14.7561,0.486,6.463415,0.486,-2.926829,0.0324,0
0.03790385,0,0.49275,-1.773259,0.49275,-0.4625893,0.49275,0.03854911,0.05797059,0,0.49275,0.1328125,0.49275,-0.8916016,0.49275,0.2324219,0.49275,46.64634,0.49275,-32.13415,0.49275,10.54878,0.05797059,0,0.49275,-0.8725586,0.49275,-0.418457,0.49275,0.3334961,0.49275,-5.365854,0.49275,-4.45122,0.49275,-5.914634,0.05797059,0,0.49275,-0.8173828,0.49275,-0.4614258,0.49275,-0.3774414,0.49275,4.817073,0.49275,6.280488,0.49275,0.1219512,0.05797059,0,0.49275,0.003417969,0.49275,-0.4492188,0.49275,0.8198242,0.49275,10.12195,0.49275,-15.79268,0.49275,-11.46342,0.05797059,0,0.49275,0.199707,0.49275,-0.9389648,0.49275,-0.4179688,0.49275,8.963415,0.49275,-4.573171,0.49275,-3.04878,0.05797059,0,0.49275,0.3164063,0.49275,-0.9604492,0.49275,-0.1660156,0.49275,12.7439,0.49275,6.036585,0.49275,-11.34146,0.05797059,0,0.49275,0.2983398,0.49275,-0.9658203,0.49275,-0.1855469,0.49275,-3.780488,0.49275,-12.2561,0.49275,-11.52439,0.1407857,1.418526,0.1407857,0.0318334,0.1407857,0.01943838,0.1407857,0.02408651,0.1407857,0,0.1407857,0,0.1407857,0,0.1407857,0,0.05797059,0,0.49275,-1.002441,0.49275,-0.06396484,0.49275,-0.03369141,0.49275,-14.32927,0.49275,6.707317,0.49275,-2.804878,0.03285,0
0.03842308,0,0.4995,-1.619063,0.4995,-0.5011384,0.4995,-0.03854911,0.0587647,0,0.4995,0.2338867,0.4995,-0.8774414,0.4995,0.2871094,0.4995,54.20732,0.4995,-81.52439,0.4995,15.85366,0.0587647,0,0.4995,-0.8583984,0.4995,-0.4233398,0.4995,0.2895508,0.4995,2.682927,0.4995,-5.914634,0.4995,-6.280488,0.0587647,0,0.4995,-0.8120117,0.4995,-0.4770508,0.4995,-0.3818359,0.4995,3.658537,0.4995,6.646342,0.4995,-0.1829268,0.0587647,0,0.4995,0.03076172,0.4995,-0.4785156,0.4995,0.8647461,0.4995,11.09756,0.4995,-19.32927,0.4995,-12.80488,0.0587647,0,0.4995,0.2226563,0.4995,-0.9404297,0.4995,-0.4135742,0.4995,8.47561,0.4995,-3.658537,0.4995,-3.780488,0.0587647,0,0.4995,0.3183594,0.4995,-0.9624023,0.4995,-0.168457,0.4995,12.19512,0.4995,7.195122,0.4995,-11.28049,0.0587647,0,0.4995,0.2905273,0.4995,-0.9746094,0.4995,-0.1923828,0.4995,-3.780488,0.4995,-12.2561,0.4995,-12.0122,0.1427143,1.418526,0.1427143,0.02873465,0.1427143,0.01943838,0.1427143,0.02563589,0.1427143,0,0.1427143,0,0.1427143,0,0.1427143,0,0.0587647,0,0.4995,-1.003418,0.4995,-0.08886719,0.4995,-0.01513672,0.4995,-13.84146,0.4995,8.353659,0.4995,-2.5,0.0333,0
0.03894231,0,0.50625,-1.541964,0.50625,-0.4240402,0.50625,0,0.05955882,0,0.50625,0.4604492,0.50625,-0.9067383,0.50625,0.2216797,0.50625,54.7561,0.50625,-115,0.50625,6.707317,0.05955882,0,0.50625,-0.8515625,0.50625,-0.4125977,0.50625,0.2285156,0.50625,4.634146,0.50625,-3.841464,0.50625,-7.317073,0.05955882,0,0.50625,-0.8076172,0.50625,-0.4848633,0.50625,-0.3803711,0.50625,2.439024,0.50625,6.707317,0.50625,-0.1829268,0.05955882,0,0.50625,0.08300781,0.50625,-0.5073242,0.50625,0.8510742,0.50625,12.2561,0.50625,-23.53659,0.50625,-15.54878,0.05955882,0,0.50625,0.2446289,0.50625,-0.9458008,0.50625,-0.4038086,0.50625,7.560976,0.50625,-2.317073,0.50625,-3.780488,0.05955882,0,0.50625,0.3168945,0.50625,-0.9594727,0.50625,-0.168457,0.50625,11.89024,0.50625,8.47561,0.50625,-11.09756,0.05955882,0,0.50625,0.2861328,0.50625,-0.9824219,0.50625,-0.1933594,0.50625,-3.780488,0.50625,-11.95122,0.50625,-11.76829,0.1446429,1.421625,0.1446429,0.03028402,0.1446429,0.01943838,0.1446429,0.02563589,0.1446429,0,0.1446429,0,0.1446429,0,0.1446429,0,0.05955882,0,0.50625,-1.009277,0.50625,-0.1152344,0.50625,-0.01269531,0.50625,-11.89024,0.50625,10.30488,0.50625,-2.195122,0.03375,0
0.03946154,0,0.513,-1.426317,0.513,-0.2312946,0.513,0.1156473,0.06035294,0,0.513,0.6582031,0.513,-0.9682617,0.513,0.07373047,0.513,43.71951,0.513,-77.13415,0.513,-6.585366,0.06035294,0,0.513,-0.8618164,0.513,-0.4169922,0.513,0.2626953,0.513,-0.5487805,0.513,6.402439,0.513,-8.536586,0.06035294,0,0.513,-0.7983398,0.513,-0.5063477,0.513,-0.3730469,0.513,1.52439,0.513,7.073171,0.513,0.1829268,0.06035294,0,0.513,0.1137695,0.513,-0.5161133,0.513,0.8251953,0.513,8.658537,0.513,-19.26829,0.513,-17.86585,0.06035294,0,0.513,0.2666016,0.513,-0.9487305,0.513,-0.3891602,0.513,6.219512,0.513,-0.3658537,0.513,-3.902439,0.06035294,0,0.513,0.3178711,0.513,-0.9609375,0.513,-0.159668,0.513,11.52439,0.513,9.085366,0.513,-10.67073,0.06035294,0,0.513,0.2890625,0.513,-0.9746094,0.513,-0.184082,0.513,-4.085366,0.513,-11.15854,0.513,-11.46342,0.1465714,1.421625,0.1465714,0.03028402,0.1465714,0.01943838,0.1465714,0.02718527,0.1465714,0,0.1465714,0,0.1465714,0,0.1465714,0,0.06035294,0,0.513,-1.018555,0.513,-0.1459961,0.513,-0.03027344,0.513,-7.926829,0.513,10.30488,0.513,-2.378049,0.0342,0
0.03998077,0,0.51975,-1.426317,0.51975,-0.1156473,0.51975,0.1541964,0.06114706,0,0.51975,0.7241211,0.51975,-0.9790039,0.51975,-0.03808594,0.51975,36.15854,0.51975,-14.32927,0.51975,-7.621952,0.06114706,0,0.51975,-0.8974609,0.51975,-0.4296875,0.51975,0.2895508,0.51975,-1.097561,0.51975,11.03659,0.51975,-8.963415,0.06114706,0,0.51975,-0.7880859,0.51975,-0.5322266,0.51975,-0.3583984,0.51975,1.341463,0.51975,8.597561,0.51975,1.219512,0.06114706,0,0.51975,0.1435547,0.51975,-0.5249023,0.51975,0.7905273,0.51975,3.04878,0.51975,-10.12195,0.51975,-20.79268,0.06114706,0,0.51975,0.2929688,0.51975,-0.9541016,0.51975,-0.3637695,0.51975,4.512195,0.51975,3.292683,0.51975,-3.292683,0.06114706,0,0.51975,0.3193359,0.51975,-0.9599609,0.51975,-0.1611328,0.51975,11.82927,0.51975,10.2439,0.51975,-10.36585,0.06114706,0,0.51975,0.2958984,0.51975,-0.9755859,0.51975,-0.1679688,0.51975,-4.02439,0.51975,-9.634147,0.51975,-11.76829,0.1485,1.420076,0.1485,0.03028402,0.1485,0.02098776,0.1485,0.02563589,0.1485,0,0.1485,0,0.1485,0,0.1485,0,0.06114706,0,0.51975,-1.025391,0.51975,-0.175293,0.51975,-0.03369141,0.51975,-3.658537,0.51975,9.390244,0.51975,-3.109756,0.03465,0
0.0405,0,0.5265,-1.541964,0.5265,-0.1156473,0.5265,0.07709821,0.06194118,0,0.5265,0.7314453,0.5265,-0.9355469,0.5265,0.02490234,0.5265,40.36586,0.5265,-14.5122,0.5265,-4.02439,0.06194118,0,0.5265,-0.8994141,0.5265,-0.4316406,0.5265,0.2456055,0.5265,11.40244,0.5265,5.792683,0.5265,-9.207317,0.06194118,0,0.5265,0,0.5265,0,0.5265,0,0.5265,0,0.5265,0,0.5265,0,0.06194118,0,0.5265,0.1450195,0.5265,-0.5336914,0.5265,0.8085938,0.5265,1.341463,0.5265,-3.47561,0.5265,-24.93903,0.06194118,0,0.5265,0.3085938,0.5265,-0.9580078,0.5265,-0.3520508,0.5265,2.317073,0.5265,8.353659,0.5265,-1.768293,0.06194118,0,0.5265,0.3208008,0.5265,-0.9584961,0.5265,-0.1655273,0.5265,11.46342,0.5265,11.46342,0.5265,-9.756098,0.06194118,0,0.5265,0.2836914,0.5265,-0.9858398,0.5265,-0.171875,0.5265,-3.597561,0.5265,-5.792683,0.5265,-12.62195,0.1504286,1.423175,0.1504286,0.03028402,0.1504286,0.02098776,0.1504286,0.02563589,0.1504286,0,0.1504286,0,0.1504286,0,0.1504286,0,0.06194118,0,0.5265,-1.024902,0.5265,-0.1757813,0.5265,-0.02441406,0.5265,1.219512,0.5265,8.353659,0.5265,-3.231707,0.0351,0
0.04101923,0,0.53325,-1.580513,0.53325,-0.1927455,0.53325,0.1541964,0.0627353,0,0.53325,0.7788086,0.53325,-0.890625,0.53325,0.2319336,0.53325,51.70732,0.53325,-70.18293,0.53325,-8.47561,0.0627353,0,0.53325,-0.894043,0.53325,-0.4204102,0.53325,0.2138672,0.53325,22.31707,0.53325,6.463415,0.53325,-11.15854,0.0627353,0,0.53325,0,0.53325,0,0.53325,0,0.53325,0,0.53325,0,0.53325,0,0.0627353,0,0.53325,0.1333008,0.53325,-0.5454102,0.53325,0.8354492,0.53325,2.621951,0.53325,1.402439,0.53325,-28.23171,0.0627353,0,0.53325,0.3300781,0.53325,-0.9736328,0.53325,-0.3305664,0.53325,0.4878049,0.53325,13.90244,0.53325,1.158537,0.0627353,0,0.53325,0.3276367,0.53325,-0.9614258,0.53325,-0.1694336,0.53325,11.21951,0.53325,13.10976,0.53325,-9.207317,0.0627353,0,0.53325,0.2719727,0.53325,-0.9907227,0.53325,-0.1845703,0.53325,-3.231707,0.53325,-3.597561,0.53325,-13.04878,0.1523571,1.426273,0.1523571,0.03028402,0.1523571,0.01943838,0.1523571,0.02408651,0.1523571,0,0.1523571,0,0.1523571,0,0.1523571,0,0.0627353,0,0.53325,-1.019531,0.53325,-0.168457,0.53325,-0.01513672,0.53325,7.073171,0.53325,7.5,0.53325,-3.353659,0.03555,0
0.04153846,0,0.54,-1.619063,0.54,-0.1541964,0.54,0.07709821,0.06352941,0,0.54,0.8242188,0.54,-0.8774414,0.54,0.4331055,0.54,65.79269,0.54,-114.2073,0.54,-20.12195,0.06352941,0,0.54,-0.8945313,0.54,-0.3969727,0.54,0.1918945,0.54,23.41463,0.54,14.20732,0.54,-12.56098,0.06352941,0,0.54,-0.7788086,0.54,-0.6088867,0.54,-0.3149414,0.54,9.695122,0.54,18.84146,0.54,8.902439,0.06352941,0,0.54,0.1308594,0.54,-0.559082,0.54,0.8603516,0.54,4.45122,0.54,6.036585,0.54,-30.60976,0.06352941,0,0.54,0.3515625,0.54,-0.9892578,0.54,-0.3134766,0.54,-1.463415,0.54,19.63415,0.54,5.914634,0.06352941,0,0.54,0.3354492,0.54,-0.9638672,0.54,-0.1674805,0.54,11.03659,0.54,14.5122,0.54,-8.658537,0.06352941,0,0.54,0.2719727,0.54,-0.9931641,0.54,-0.1748047,0.54,-2.804878,0.54,-1.646341,0.54,-13.04878,0.1542857,1.429372,0.1542857,0.03028402,0.1542857,0.02098776,0.1542857,0.02408651,0.1542857,0,0.1542857,0,0.1542857,0,0.1542857,0,0.06352941,0,0.54,-1.011719,0.54,-0.144043,0.54,-0.02050781,0.54,12.19512,0.54,6.219512,0.54,-3.780488,0.036,0
0.04205769,0,0.54675,-1.657612,0.54675,-0.1156473,0.54675,0,0.06432353,0,0.54675,0.8046875,0.54675,-0.8662109,0.54675,0.5395508,0.54675,74.69512,0.54675,-121.6463,0.54675,-27.62195,0.06432353,0,0.54675,-0.8911133,0.54675,-0.4077148,0.54675,0.2128906,0.54675,23.65854,0.54675,17.07317,0.54675,-14.69512,0.06432353,0,0.54675,-0.7797852,0.54675,-0.6196289,0.54675,-0.3129883,0.54675,17.7439,0.54675,23.71951,0.54675,12.13415,0.06432353,0,0.54675,0.1333008,0.54675,-0.5600586,0.54675,0.8691406,0.54675,5.426829,0.54675,12.2561,0.54675,-33.29268,0.06432353,0,0.54675,0.3652344,0.54675,-0.9975586,0.54675,-0.300293,0.54675,-3.109756,0.54675,24.45122,0.54675,11.46342,0.06432353,0,0.54675,0.3447266,0.54675,-0.9663086,0.54675,-0.1616211,0.54675,10.73171,0.54675,16.15854,0.54675,-7.926829,0.06432353,0,0.54675,0.2895508,0.54675,-0.9775391,0.54675,-0.1728516,0.54675,-2.743902,0.54675,-1.829268,0.54675,-13.17073,0.1562143,1.429372,0.1562143,0.02873465,0.1562143,0.02098776,0.1562143,0.02253714,0.1562143,0,0.1562143,0,0.1562143,0,0.1562143,0,0.06432353,0,0.54675,-1.002441,0.54675,-0.1132813,0.54675,-0.02441406,0.54675,15.60976,0.54675,5.670732,0.54675,-4.329268,0.03645,0
0.04257692,0,0.5535,-1.696161,0.5535,-0.1927455,0.5535,0.03854911,0.06511765,0,0.5535,0.7915039,0.5535,-0.8242188,0.5535,0.6064453,0.5535,71.89024,0.5535,-111.9512,0.5535,-30.85366,0.06511765,0,0.5535,-0.8779297,0.5535,-0.4301758,0.5535,0.2231445,0.5535,25.73171,0.5535,16.15854,0.5535,-18.10976,0.06511765,0,0.5535,-0.7871094,0.5535,-0.6196289,0.5535,-0.3134766,0.5535,27.13415,0.5535,27.92683,0.5535,14.93902,0.06511765,0,0.5535,0.1230469,0.5535,-0.5371094,0.5535,0.8676758,0.5535,7.5,0.5535,18.17073,0.5535,-37.80488,0.06511765,0,0.5535,0.3725586,0.5535,-0.9941406,0.5535,-0.2939453,0.5535,-3.841464,0.5535,28.23171,0.5535,16.46342,0.06511765,0,0.5535,0.3500977,0.5535,-0.9692383,0.5535,-0.1547852,0.5535,10.2439,0.5535,18.35366,0.5535,-7.073171,0.06511765,0,0.5535,0.2973633,0.5535,-0.9672852,0.5535,-0.1674805,0.5535,-3.780488,0.5535,-0.1219512,0.5535,-13.84146,0.1581429,1.427823,0.1581429,0.03028402,0.1581429,0.02098776,0.1581429,0.02408651,0.1581429,0,0.1581429,0,0.1581429,0,0.1581429,0,0.06511765,0,0.5535,-0.9931641,0.5535,-0.08496094,0.5535,-0.02246094,0.5535,18.96342,0.5535,5.487805,0.5535,-5.243903,0.0369,0
0.04309615,0,0.56025,-1.657612,0.56025,-0.2312946,0.56025,0.03854911,0.06591176,0,0.56025,0.8095703,0.56025,-0.7758789,0.56025,0.6674805,0.56025,66.95122,0.56025,-104.3902,0.56025,-33.90244,0.06591176,0,0.56025,-0.862793,0.56025,-0.4545898,0.56025,0.222168,0.56025,26.95122,0.56025,16.95122,0.56025,-22.19512,0.06591176,0,0.56025,-0.8037109,0.56025,-0.6147461,0.56025,-0.3134766,0.56025,36.52439,0.56025,31.76829,0.56025,17.37805,0.06591176,0,0.56025,0.1049805,0.56025,-0.5117188,0.56025,0.8613281,0.56025,11.28049,0.56025,21.58537,0.56025,-43.10976,0.06591176,0,0.56025,0.3803711,0.56025,-0.9804688,0.56025,-0.2954102,0.56025,-3.780488,0.56025,30.12195,0.56025,18.71951,0.06591176,0,0.56025,0.3544922,0.56025,-0.9716797,0.56025,-0.1508789,0.56025,10.12195,0.56025,21.89024,0.56025,-5.792683,0.06591176,0,0.56025,0.2861328,0.56025,-0.9790039,0.56025,-0.1611328,0.56025,-4.45122,0.56025,1.768293,0.56025,-15.12195,0.1600714,1.429372,0.1600714,0.03028402,0.1600714,0.02098776,0.1600714,0.02563589,0.1600714,0,0.1600714,0,0.1600714,0,0.1600714,0,0.06591176,0,0.56025,-0.9956055,0.56025,-0.06591797,0.56025,-0.03027344,0.56025,22.13415,0.56025,5.182927,0.56025,-6.158537,0.03735,0
0.04361539,0,0.567,-1.619063,0.567,-0.2312946,0.567,0.03854911,0.06670588,0,0.567,0.8183594,0.567,-0.7353516,0.567,0.6865234,0.567,54.93903,0.567,-78.53659,0.567,-44.32927,0.06670588,0,0.567,-0.8510742,0.567,-0.465332,0.567,0.2255859,0.567,28.96342,0.567,18.17073,0.567,-26.46342,0.06670588,0,0.567,-0.8208008,0.567,-0.6015625,0.567,-0.3120117,0.567,40.60976,0.567,33.41463,0.567,18.47561,0.06670588,0,0.567,0.07763672,0.567,-0.4995117,0.567,0.8613281,0.567,14.69512,0.567,24.7561,0.567,-47.0122,0.06670588,0,0.567,0.3740234,0.567,-0.9604492,0.567,-0.3056641,0.567,-4.390244,0.567,33.53659,0.567,22.56098,0.06670588,0,0.567,0.3505859,0.567,-0.9726563,0.567,-0.1503906,0.567,9.695122,0.567,25.67073,0.567,-4.45122,0.06670588,0,0.567,0.2807617,0.567,-0.9897461,0.567,-0.1733398,0.567,-4.085366,0.567,5.304878,0.567,-15.54878,0.162,1.432471,0.162,0.03028402,0.162,0.02098776,0.162,0.02408651,0.162,0,0.162,0,0.162,0,0.162,0,0.06670588,0,0.567,-1.000977,0.567,-0.05712891,0.567,-0.04541016,0.567,24.87805,0.567,5.365854,0.567,-6.52439,0.0378,0
0.04413462,0,0.57375,-1.541964,0.57375,-0.1541964,0.57375,0.03854911,0.0675,0,0.57375,0.8115234,0.57375,-0.7231445,0.57375,0.6606445,0.57375,42.5,0.57375,-36.09756,0.57375,-54.14634,0.0675,0,0.57375,-0.8422852,0.57375,-0.4516602,0.57375,0.2280273,0.57375,31.70732,0.57375,19.32927,0.57375,-30.73171,0.0675,0,0.57375,-0.8393555,0.57375,-0.5834961,0.57375,-0.3193359,0.57375,48.35366,0.57375,35.97561,0.57375,20.2439,0.0675,0,0.57375,0.03662109,0.57375,-0.5219727,0.57375,0.8759766,0.57375,17.0122,0.57375,28.10976,0.57375,-48.17073,0.0675,0,0.57375,0.3603516,0.57375,-0.9433594,0.57375,-0.3129883,0.57375,-5.54878,0.57375,36.34146,0.57375,25.48781,0.0675,0,0.57375,0.3452148,0.57375,-0.972168,0.57375,-0.1601563,0.57375,8.902439,0.57375,28.53659,0.57375,-3.353659,0.0675,0,0.57375,0.2802734,0.57375,-0.9907227,0.57375,-0.1689453,0.57375,-4.817073,0.57375,8.597561,0.57375,-16.03658,0.1639286,1.43557,0.1639286,0.02873465,0.1639286,0.01943838,0.1639286,0.02563589,0.1639286,0,0.1639286,0,0.1639286,0,0.1639286,0,0.0675,0,0.57375,-1.01123,0.57375,-0.04931641,0.57375,-0.05126953,0.57375,26.15854,0.57375,5.365854,0.57375,-6.585366,0.03825,0
0.04465385,0,0.5805,-1.541964,0.5805,-0.03854911,0.5805,0,0.06829412,0,0.5805,0.7797852,0.5805,-0.7177734,0.5805,0.5664063,0.5805,28.23171,0.5805,10.2439,0.5805,-58.10976,0.06829412,0,0.5805,-0.84375,0.5805,-0.4135742,0.5805,0.2353516,0.5805,33.04878,0.5805,22.0122,0.5805,-33.84146,0.06829412,0,0.5805,-0.8422852,0.5805,-0.5683594,0.5805,-0.3256836,0.5805,53.96342,0.5805,37.9878,0.5805,21.58537,0.06829412,0,0.5805,-0.003417969,0.5805,-0.5429688,0.5805,0.8847656,0.5805,18.90244,0.5805,30.42683,0.5805,-47.62195,0.06829412,0,0.5805,0.3422852,0.5805,-0.9267578,0.5805,-0.3227539,0.5805,-7.195122,0.5805,39.39024,0.5805,27.2561,0.06829412,0,0.5805,0.3364258,0.5805,-0.9707031,0.5805,-0.1748047,0.5805,8.109756,0.5805,31.03659,0.5805,-1.95122,0.06829412,0,0.5805,0.2861328,0.5805,-0.9907227,0.5805,-0.1640625,0.5805,-5.182927,0.5805,11.40244,0.5805,-16.70732,0.1658572,1.437119,0.1658572,0.0318334,0.1658572,0.02098776,0.1658572,0.02253714,0.1658572,0,0.1658572,0,0.1658572,0,0.1658572,0,0.06829412,0,0.5805,-1.02002,0.5805,-0.04833984,0.5805,-0.05664063,0.5805,28.53659,0.5805,5.731708,0.5805,-6.52439,0.0387,0
0.04517308,0,0.58725,-1.503415,0.58725,0.07709821,0.58725,-0.03854911,0.06908824,0,0.58725,0.7456055,0.58725,-0.7495117,0.58725,0.503418,0.58725,17.80488,0.58725,47.13415,0.58725,-58.47561,0.06908824,0,0.58725,-0.8696289,0.58725,-0.3701172,0.58725,0.2509766,0.58725,33.47561,0.58725,25.06098,0.58725,-34.87805,0.06908824,0,0.58725,-0.8432617,0.58725,-0.5307617,0.58725,-0.3432617,0.58725,57.37805,0.58725,40.54878,0.58725,22.0122,0.06908824,0,0.58725,-0.02978516,0.58725,-0.5546875,0.58725,0.8901367,0.58725,20.06098,0.58725,30.79268,0.58725,-47.13415,0.06908824,0,0.58725,0.3125,0.58725,-0.9233398,0.58725,-0.3447266,0.58725,-8.597561,0.58725,43.17073,0.58725,28.47561,0.06908824,0,0.58725,0.3359375,0.58725,-0.972168,0.58725,-0.1772461,0.58725,7.743903,0.58725,32.56098,0.58725,-1.219512,0.06908824,0,0.58725,0.284668,0.58725,-0.9882813,0.58725,-0.1669922,0.58725,-5.426829,0.58725,13.29268,0.58725,-17.2561,0.1677857,1.438668,0.1677857,0.0318334,0.1677857,0.02098776,0.1677857,0.02408651,0.1677857,0,0.1677857,0,0.1677857,0,0.1677857,0,0.06908824,0,0.58725,-1.015137,0.58725,-0.04931641,0.58725,-0.06005859,0.58725,31.09756,0.58725,5.54878,0.58725,-6.036585,0.03915,0
0.04569231,0,0.594,-1.503415,0.594,0.07709821,0.594,-0.03854911,0.06988236,0,0.594,0.6860352,0.594,-0.8100586,0.594,0.5224609,0.594,17.31707,0.594,70.42683,0.594,-58.53659,0.06988236,0,0.594,-0.8911133,0.594,-0.3359375,0.594,0.2705078,0.594,35.30488,0.594,26.70732,0.594,-34.14634,0.06988236,0,0.594,-0.8413086,0.594,-0.4912109,0.594,-0.3598633,0.594,57.86586,0.594,43.35366,0.594,22.0122,0.06988236,0,0.594,-0.04492188,0.594,-0.5522461,0.594,0.8935547,0.594,23.04878,0.594,29.45122,0.594,-46.03659,0.06988236,0,0.594,0.2841797,0.594,-0.9199219,0.594,-0.3730469,0.594,-9.878049,0.594,46.15854,0.594,28.53659,0.06988236,0,0.594,0.3320313,0.594,-0.9760742,0.594,-0.1777344,0.594,7.134147,0.594,35.67073,0.594,0.2439024,0.06988236,0,0.594,0.2773438,0.594,-0.9921875,0.594,-0.1494141,0.594,-5.97561,0.594,15.91463,0.594,-18.29268,0.1697143,1.43557,0.1697143,0.03028402,0.1697143,0.02098776,0.1697143,0.02408651,0.1697143,0,0.1697143,0,0.1697143,0,0.1697143,0,0.06988236,0,0.594,-1.01709,0.594,-0.04345703,0.594,-0.05957031,0.594,33.10976,0.594,5.365854,0.594,-6.158537,0.0396,0
0.04621154,0,0.60075,-1.426317,0.60075,0.07709821,0.60075,-0.03854911,0.07067647,0,0.60075,0.5849609,0.60075,-0.8623047,0.60075,0.5913086,0.60075,22.0122,0.60075,73.71951,0.60075,-60.12195,0.07067647,0,0.60075,-0.90625,0.60075,-0.3139648,0.60075,0.293457,0.60075,37.5,0.60075,28.23171,0.60075,-32.62195,0.07067647,0,0.60075,-0.8383789,0.60075,-0.4633789,0.60075,-0.3769531,0.60075,56.64634,0.60075,44.7561,0.60075,21.46342,0.07067647,0,0.60075,-0.05078125,0.60075,-0.5449219,0.60075,0.894043,0.60075,26.34146,0.60075,28.47561,0.60075,-44.87805,0.07067647,0,0.60075,0.2675781,0.60075,-0.9238281,0.60075,-0.3823242,0.60075,-11.40244,0.60075,48.23171,0.60075,28.17073,0.07067647,0,0.60075,0.3217773,0.60075,-0.9794922,0.60075,-0.1821289,0.60075,6.52439,0.60075,39.87805,0.60075,1.829268,0.07067647,0,0.60075,0.2807617,0.60075,-0.9951172,0.60075,-0.1489258,0.60075,-5.853659,0.60075,19.93902,0.60075,-19.08537,0.1716429,1.43402,0.1716429,0.03028402,0.1716429,0.02098776,0.1716429,0.02408651,0.1716429,0,0.1716429,0,0.1716429,0,0.1716429,0,0.07067647,0,0.60075,-1.015625,0.60075,-0.03173828,0.60075,-0.06591797,0.60075,34.7561,0.60075,5.304878,0.60075,-6.341464,0.04005,0
0.04673077,0,0.6075,-1.272121,0.6075,0,0.6075,0,0.07147059,0,0.6075,0.4887695,0.6075,-0.8959961,0.6075,0.6835938,0.6075,29.63415,0.6075,59.45122,0.6075,-64.02439,0.07147059,0,0.6075,-0.9160156,0.6075,-0.3037109,0.6075,0.3085938,0.6075,38.41463,0.6075,29.39025,0.6075,-31.40244,0.07147059,0,0.6075,-0.8398438,0.6075,-0.4345703,0.6075,-0.3808594,0.6075,54.20732,0.6075,44.93903,0.6075,20,0.07147059,0,0.6075,-0.07666016,0.6075,-0.5273438,0.6075,0.8935547,0.6075,28.04878,0.6075,29.57317,0.6075,-44.02439,0.07147059,0,0.6075,0.2333984,0.6075,-0.9370117,0.6075,-0.3959961,0.6075,-12.5,0.6075,50.12195,0.6075,27.62195,0.07147059,0,0.6075,0.3071289,0.6075,-0.9790039,0.6075,-0.1914063,0.6075,6.158537,0.6075,43.17073,0.6075,3.170732,0.07147059,0,0.6075,0.2988281,0.6075,-1.004395,0.6075,-0.1342773,0.6075,-6.463415,0.6075,27.68293,0.6075,-19.5122,0.1735714,1.430921,0.1735714,0.0318334,0.1735714,0.02253714,0.1735714,0.02408651,0.1735714,0,0.1735714,0,0.1735714,0,0.1735714,0,0.07147059,0,0.6075,-1.018555,0.6075,-0.01220703,0.6075,-0.06787109,0.6075,35.36586,0.6075,5.243903,0.6075,-6.402439,0.0405,0
0.04725,0,0.61425,-1.079375,0.61425,-0.07709821,0.61425,0.03854911,0.0722647,0,0.61425,0.4052734,0.61425,-0.8945313,0.61425,0.715332,0.61425,40,0.61425,46.28049,0.61425,-68.23171,0.0722647,0,0.61425,-0.9233398,0.61425,-0.2983398,0.61425,0.3276367,0.61425,37.37805,0.61425,30.18293,0.61425,-30.97561,0.0722647,0,0.61425,-0.8505859,0.61425,-0.418457,0.61425,-0.3818359,0.61425,52.56098,0.61425,44.87805,0.61425,18.35366,0.0722647,0,0.61425,-0.121582,0.61425,-0.5087891,0.61425,0.8950195,0.61425,29.45122,0.61425,32.2561,0.61425,-43.17073,0.0722647,0,0.61425,0.199707,0.61425,-0.9506836,0.61425,-0.409668,0.61425,-12.2561,0.61425,51.58537,0.61425,26.58537,0.0722647,0,0.61425,0.2929688,0.61425,-0.9775391,0.61425,-0.2026367,0.61425,5.54878,0.61425,45.54878,0.61425,4.329268,0.0722647,0,0.61425,0.3100586,0.61425,-0.9956055,0.61425,-0.1279297,0.61425,-6.95122,0.61425,38.59756,0.61425,-20.67073,0.1755,1.429372,0.1755,0.0318334,0.1755,0.02098776,0.1755,0.02253714,0.1755,0,0.1755,0,0.1755,0,0.1755,0,0.0722647,0,0.61425,-1.016602,0.61425,-0.002929688,0.61425,-0.06738281,0.61425,35.4878,0.61425,5,0.61425,-6.768293,0.04095,0
0.04776923,0,0.621,-0.9637277,0.621,-0.07709821,0.621,0.07709821,0.07305882,0,0.621,0.3261719,0.621,-0.8432617,0.621,0.6445313,0.621,45.4878,0.621,48.17073,0.621,-66.46342,0.07305882,0,0.621,-0.9277344,0.621,-0.2973633,0.621,0.3496094,0.621,36.34146,0.621,30.30488,0.621,-30.85366,0.07305882,0,0.621,-0.8637695,0.621,-0.4052734,0.621,-0.3808594,0.621,52.37805,0.621,44.93903,0.621,16.95122,0.07305882,0,0.621,-0.1850586,0.621,-0.4985352,0.621,0.8935547,0.621,31.89025,0.621,34.32927,0.621,-41.64634,0.07305882,0,0.621,0.1655273,0.621,-0.9702148,0.621,-0.4272461,0.621,-11.28049,0.621,51.46342,0.621,25.36585,0.07305882,0,0.621,0.277832,0.621,-0.9731445,0.621,-0.2177734,0.621,5.060976,0.621,48.10976,0.621,5.365854,0.07305882,0,0.621,0.2919922,0.621,-0.9907227,0.621,-0.1269531,0.621,-5.792683,0.621,42.19512,0.621,-22.86585,0.1774286,1.429372,0.1774286,0.03028402,0.1774286,0.02253714,0.1774286,0.02408651,0.1774286,0,0.1774286,0,0.1774286,0,0.1774286,0,0.07305882,0,0.621,-1.013184,0.621,0.01269531,0.621,-0.06738281,0.621,35.30488,0.621,4.817073,0.621,-7.317073,0.0414,0
0.04828846,0,0.62775,-0.8095313,0.62775,-0.1541964,0.62775,0.1156473,0.07385294,0,0.62775,0.2456055,0.62775,-0.7421875,0.62775,0.5170898,0.62775,41.46342,0.62775,62.86586,0.62775,-57.19512,0.07385294,0,0.62775,-0.9277344,0.62775,-0.2890625,0.62775,0.3720703,0.62775,33.47561,0.62775,29.26829,0.62775,-30.60976,0.07385294,0,0.62775,-0.8798828,0.62775,-0.3920898,0.62775,-0.3891602,0.62775,51.58537,0.62775,45.54878,0.62775,15.97561,0.07385294,0,0.62775,-0.2412109,0.62775,-0.4946289,0.62775,0.8920898,0.62775,35.12195,0.62775,35.06098,0.62775,-39.20732,0.07385294,0,0.62775,0.1318359,0.62775,-0.984375,0.62775,-0.4414063,0.62775,-10.18293,0.62775,49.2683,0.62775,24.02439,0.07385294,0,0.62775,0.2514648,0.62775,-0.9711914,0.62775,-0.2148438,0.62775,5.426829,0.62775,50.42683,0.62775,6.646342,0.07385294,0,0.62775,0.2646484,0.62775,-0.9863281,0.62775,-0.1391602,0.62775,-5.731708,0.62775,43.84146,0.62775,-24.39024,0.1793572,1.430921,0.1793572,0.03028402,0.1793572,0.02098776,0.1793572,0.02253714,0.1793572,0,0.1793572,0,0.1793572,0,0.1793572,0,0.07385294,0,0.62775,-1.009766,0.62775,0.02636719,0.62775,-0.07226563,0.62775,34.14634,0.62775,4.634146,0.62775,-8.292683,0.04185,0
0.04880769,0,0.6345,-0.7709821,0.6345,-0.1927455,0.6345,0,0.07464705,0,0.6345,0.1958008,0.6345,-0.6245117,0.6345,0.3798828,0.6345,29.26829,0.6345,77.0122,0.6345,-45.73171,0.07464705,0,0.6345,-0.9194336,0.6345,-0.2724609,0.6345,0.3891602,0.6345,29.81707,0.6345,26.70732,0.6345,-30.48781,0.07464705,0,0.6345,-0.8867188,0.6345,-0.3813477,0.6345,-0.40625,0.6345,48.53659,0.6345,45.54878,0.6345,15,0.07464705,0,0.6345,-0.293457,0.6345,-0.4804688,0.6345,0.8789063,0.6345,37.68293,0.6345,35.67073,0.6345,-35.36586,0.07464705,0,0.6345,0.1108398,0.6345,-0.9892578,0.6345,-0.4609375,0.6345,-9.45122,0.6345,47.37805,0.6345,23.41463,0.07464705,0,0.6345,0.2363281,0.6345,-0.9731445,0.6345,-0.2055664,0.6345,6.463415,0.6345,52.56098,0.6345,8.353659,0.07464705,0,0.6345,0.237793,0.6345,-0.9838867,0.6345,-0.1435547,0.6345,-5.670732,0.6345,40.79268,0.6345,-25.48781,0.1812857,1.432471,0.1812857,0.03028402,0.1812857,0.02098776,0.1812857,0.02563589,0.1812857,0,0.1812857,0,0.1812857,0,0.1812857,0,0.07464705,0,0.6345,-1.008301,0.6345,0.02978516,0.6345,-0.07324219,0.6345,32.43903,0.6345,4.45122,0.6345,-9.02439,0.0423,0
0.04932692,0,0.64125,-0.8095313,0.64125,-0.1541964,0.64125,0,0.07544117,0,0.64125,0.2016602,0.64125,-0.5268555,0.64125,0.2675781,0.64125,17.43902,0.64125,83.17073,0.64125,-38.41463,0.07544117,0,0.64125,-0.9101563,0.64125,-0.2568359,0.64125,0.3984375,0.64125,25.42683,0.64125,23.96342,0.64125,-30.12195,0.07544117,0,0.64125,-0.8935547,0.64125,-0.3725586,0.64125,-0.4321289,0.64125,46.03659,0.64125,45.18293,0.64125,14.57317,0.07544117,0,0.64125,-0.3310547,0.64125,-0.4707031,0.64125,0.8735352,0.64125,38.35366,0.64125,34.57317,0.64125,-30.42683,0.07544117,0,0.64125,0.08789063,0.64125,-0.9892578,0.64125,-0.4736328,0.64125,-8.353659,0.64125,43.41463,0.64125,21.89024,0.07544117,0,0.64125,0.2260742,0.64125,-0.9790039,0.64125,-0.2016602,0.64125,7.134147,0.64125,54.14634,0.64125,9.695122,0.07544117,0,0.64125,0.2202148,0.64125,-0.9916992,0.64125,-0.144043,0.64125,-6.036585,0.64125,36.46342,0.64125,-26.34146,0.1832143,1.441767,0.1832143,0.0318334,0.1832143,0.02098776,0.1832143,0.02253714,0.1832143,0,0.1832143,0,0.1832143,0,0.1832143,0,0.07544117,0,0.64125,-1.003906,0.64125,0.02832031,0.64125,-0.07128906,0.64125,30.18293,0.64125,4.695122,0.64125,-10.18293,0.04275,0
0.04984615,0,0.648,-0.7709821,0.648,-0.1541964,0.648,-0.1156473,0.07623529,0,0.648,0.2543945,0.648,-0.4667969,0.648,0.2050781,0.648,10.54878,0.648,78.23171,0.648,-36.7683,0.07623529,0,0.648,-0.902832,0.648,-0.2504883,0.648,0.3999023,0.648,20.97561,0.648,20.85366,0.648,-29.63415,0.07623529,0,0.648,-0.8886719,0.648,-0.3701172,0.648,-0.4448242,0.648,40.06098,0.648,43.71951,0.648,13.47561,0.07623529,0,0.648,-0.3491211,0.648,-0.4628906,0.648,0.8803711,0.648,39.20732,0.648,31.34146,0.648,-25.06098,0.07623529,0,0.648,0.07763672,0.648,-0.9863281,0.648,-0.4848633,0.648,-7.073171,0.648,39.87805,0.648,20.54878,0.07623529,0,0.648,0.2080078,0.648,-0.9868164,0.648,-0.2016602,0.648,8.170732,0.648,54.45122,0.648,10.36585,0.07623529,0,0.648,0.2124023,0.648,-1.000488,0.648,-0.1533203,0.648,-5.731708,0.648,30.91463,0.648,-27.07317,0.1851429,1.449514,0.1851429,0.03028402,0.1851429,0.01943838,0.1851429,0.02408651,0.1851429,0,0.1851429,0,0.1851429,0,0.1851429,0,0.07623529,0,0.648,-1.003906,0.648,0.02832031,0.648,-0.06494141,0.648,27.56098,0.648,5.121951,0.648,-10.60976,0.0432,0
0.05036538,0,0.65475,-0.693884,0.65475,-0.1927455,0.65475,-0.1927455,0.07702941,0,0.65475,0.3291016,0.65475,-0.4257813,0.65475,0.184082,0.65475,7.926829,0.65475,70.54878,0.65475,-37.92683,0.07702941,0,0.65475,-0.8935547,0.65475,-0.2314453,0.65475,0.3969727,0.65475,15.85366,0.65475,18.35366,0.65475,-28.53659,0.07702941,0,0.65475,-0.8813477,0.65475,-0.3676758,0.65475,-0.4477539,0.65475,34.39024,0.65475,42.13415,0.65475,12.07317,0.07702941,0,0.65475,-0.3579102,0.65475,-0.4521484,0.65475,0.8857422,0.65475,40.4878,0.65475,28.96342,0.65475,-19.32927,0.07702941,0,0.65475,0.07080078,0.65475,-0.9794922,0.65475,-0.4907227,0.65475,-5.365854,0.65475,37.0122,0.65475,19.26829,0.07702941,0,0.65475,0.1948242,0.65475,-0.9941406,0.65475,-0.2050781,0.65475,8.597561,0.65475,54.14634,0.65475,10.79268,0.07702941,0,0.65475,0.2299805,0.65475,-0.9995117,0.65475,-0.1538086,0.65475,-4.634146,0.65475,24.45122,0.65475,-27.80488,0.1870714,1.46036,0.1870714,0.0318334,0.1870714,0.02253714,0.1870714,0.02408651,0.1870714,0,0.1870714,0,0.1870714,0,0.1870714,0,0.07702941,0,0.65475,-1.005859,0.65475,0.02880859,0.65475,-0.06201172,0.65475,25.85366,0.65475,5.54878,0.65475,-10.97561,0.04365,0
0.05088462,0,0.6615,-0.6553348,0.6615,-0.3083929,0.6615,-0.2312946,0.07782353,0,0.6615,0.3540039,0.6615,-0.3867188,0.6615,0.1821289,0.6615,1.219512,0.6615,46.34146,0.6615,-43.78049,0.07782353,0,0.6615,-0.8842773,0.6615,-0.2280273,0.6615,0.4038086,0.6615,10.54878,0.6615,18.10976,0.6615,-26.76829,0.07782353,0,0.6615,-0.8720703,0.6615,-0.371582,0.6615,-0.4462891,0.6615,30.42683,0.6615,40.60976,0.6615,10.85366,0.07782353,0,0.6615,-0.3588867,0.6615,-0.4291992,0.6615,0.871582,0.6615,42.2561,0.6615,27.7439,0.6615,-13.84146,0.07782353,0,0.6615,0.06152344,0.6615,-0.9702148,0.6615,-0.5019531,0.6615,-3.47561,0.6615,34.45122,0.6615,18.23171,0.07782353,0,0.6615,0.1879883,0.6615,-0.9956055,0.6615,-0.2026367,0.6615,9.512196,0.6615,52.7439,0.6615,10.85366,0.07782353,0,0.6615,0.2382813,0.6615,-0.9960938,0.6615,-0.1577148,0.6615,-4.02439,0.6615,20.60976,0.6615,-28.29268,0.189,1.465008,0.189,0.0318334,0.189,0.02098776,0.189,0.02563589,0.189,0,0.189,0,0.189,0,0.189,0,0.07782353,0,0.6615,-1.007324,0.6615,0.02734375,0.6615,-0.05859375,0.6615,22.37805,0.6615,6.036585,0.6615,-11.15854,0.0441,0
0.05140385,0,0.66825,-0.6553348,0.66825,-0.5011384,0.66825,-0.2698438,0.07861765,0,0.66825,0.3457031,0.66825,-0.3666992,0.66825,0.1708984,0.66825,-8.597561,0.66825,23.59756,0.66825,-49.39024,0.07861765,0,0.66825,-0.8740234,0.66825,-0.222168,0.66825,0.418457,0.66825,5.304878,0.66825,18.41463,0.66825,-24.63415,0.07861765,0,0.66825,-0.8657227,0.66825,-0.375,0.66825,-0.4458008,0.66825,28.23171,0.66825,38.90244,0.66825,9.45122,0.07861765,0,0.66825,-0.3681641,0.66825,-0.3916016,0.66825,0.8325195,0.66825,41.64634,0.66825,25.73171,0.66825,-9.02439,0.07861765,0,0.66825,0.05615234,0.66825,-0.9560547,0.66825,-0.512207,0.66825,-1.280488,0.66825,32.5,0.66825,17.37805,0.07861765,0,0.66825,0.1743164,0.66825,-0.9956055,0.66825,-0.203125,0.66825,10.48781,0.66825,50.79268,0.66825,10.54878,0.07861765,0,0.66825,0.262207,0.66825,-0.987793,0.66825,-0.1572266,0.66825,-4.02439,0.66825,18.96342,0.66825,-28.41463,0.1909286,1.468107,0.1909286,0.03028402,0.1909286,0.02098776,0.1909286,0.02408651,0.1909286,0,0.1909286,0,0.1909286,0,0.1909286,0,0.07861765,0,0.66825,-1.009277,0.66825,0.02392578,0.66825,-0.05761719,0.66825,18.71951,0.66825,6.097561,0.66825,-10.91463,0.04455,0
0.05192308,0,0.675,-0.5396875,0.675,-0.6167857,0.675,-0.3854911,0.07941176,0,0.675,0.3154297,0.675,-0.3461914,0.675,0.1103516,0.675,-24.02439,0.675,15.30488,0.675,-47.19512,0.07941176,0,0.675,-0.8706055,0.675,-0.2202148,0.675,0.4321289,0.675,0.1829268,0.675,16.89024,0.675,-22.31707,0.07941176,0,0.675,-0.8657227,0.675,-0.3789063,0.675,-0.4472656,0.675,27.07317,0.675,37.68293,0.675,8.353659,0.07941176,0,0.675,-0.371582,0.675,-0.3754883,0.675,0.8081055,0.675,38.29268,0.675,21.15854,0.675,-4.817073,0.07941176,0,0.675,0.04638672,0.675,-0.9511719,0.675,-0.5180664,0.675,0.06097561,0.675,30.85366,0.675,16.03658,0.07941176,0,0.675,0.1582031,0.675,-0.9926758,0.675,-0.199707,0.675,11.28049,0.675,48.35366,0.675,9.817074,0.07941176,0,0.675,0.2827148,0.675,-0.9770508,0.675,-0.1586914,0.675,-3.658537,0.675,15.54878,0.675,-28.84146,0.1928571,1.472755,0.1928571,0.03028402,0.1928571,0.02253714,0.1928571,0.02408651,0.1928571,0,0.1928571,0,0.1928571,0,0.1928571,0,0.07941176,0,0.675,-1.007813,0.675,0.02832031,0.675,-0.06152344,0.675,14.45122,0.675,6.341464,0.675,-10.48781,0.045,0
0.05244231,0,0.68175,-0.5011384,0.68175,-0.6553348,0.68175,-0.4625893,0.08020588,0,0.68175,0.3105469,0.68175,-0.3740234,0.68175,0.02392578,0.68175,-41.89024,0.68175,19.81707,0.68175,-38.17073,0.08020588,0,0.68175,-0.8657227,0.68175,-0.2182617,0.68175,0.4462891,0.68175,-4.146341,0.68175,13.71951,0.68175,-19.57317,0.08020588,0,0.68175,-0.8666992,0.68175,-0.3745117,0.68175,-0.4584961,0.68175,25.73171,0.68175,35.4878,0.68175,7.134147,0.08020588,0,0.68175,-0.3618164,0.68175,-0.3842773,0.68175,0.815918,0.68175,36.82927,0.68175,18.04878,0.68175,-2.743902,0.08020588,0,0.68175,0.02978516,0.68175,-0.9399414,0.68175,-0.5283203,0.68175,0.06097561,0.68175,28.29268,0.68175,14.81707,0.08020588,0,0.68175,0.1445313,0.68175,-0.9897461,0.68175,-0.2006836,0.68175,12.0122,0.68175,45.54878,0.68175,8.841464,0.08020588,0,0.68175,0.2949219,0.68175,-0.9731445,0.68175,-0.1606445,0.68175,-3.292683,0.68175,14.02439,0.68175,-29.57317,0.1947857,1.474304,0.1947857,0.03028402,0.1947857,0.02253714,0.1947857,0.02253714,0.1947857,0,0.1947857,0,0.1947857,0,0.1947857,0,0.08020588,0,0.68175,-1.005371,0.68175,0.03320313,0.68175,-0.06347656,0.68175,10,0.68175,6.585366,0.68175,-9.939025,0.04545,0
0.05296154,0,0.6885,-0.4240402,0.6885,-0.6167857,0.6885,-0.5011384,0.081,0,0.6885,0.3417969,0.6885,-0.4584961,0.6885,-0.02783203,0.6885,-59.14634,0.6885,27.37805,0.6885,-31.15854,0.081,0,0.6885,-0.8554688,0.6885,-0.2246094,0.6885,0.4458008,0.6885,-7.5,0.6885,9.45122,0.6885,-16.34146,0.081,0,0.6885,-0.8642578,0.6885,-0.3686523,0.6885,-0.4731445,0.6885,24.02439,0.6885,33.23171,0.6885,5.914634,0.081,0,0.6885,-0.3295898,0.6885,-0.3945313,0.6885,0.8183594,0.6885,35.4878,0.6885,9.878049,0.6885,0.6097561,0.081,0,0.6885,0.002929688,0.6885,-0.9384766,0.6885,-0.5375977,0.6885,-1.280488,0.6885,24.20732,0.6885,13.35366,0.081,0,0.6885,0.1230469,0.6885,-0.9907227,0.6885,-0.1972656,0.6885,12.80488,0.6885,41.52439,0.6885,7.804878,0.081,0,0.6885,0.3071289,0.6885,-0.9726563,0.6885,-0.1586914,0.6885,-2.926829,0.6885,13.29268,0.6885,-29.93903,0.1967143,1.475853,0.1967143,0.03028402,0.1967143,0.02098776,0.1967143,0.02253714,0.1967143,0,0.1967143,0,0.1967143,0,0.1967143,0,0.081,0,0.6885,-0.9941406,0.6885,0.02783203,0.6885,-0.06152344,0.6885,5.121951,0.6885,7.134147,0.6885,-9.390244,0.0459,0
0.05348077,0,0.69525,-0.5011384,0.69525,-0.5011384,0.69525,-0.5011384,0.08179411,0,0.69525,0.3676758,0.69525,-0.5805664,0.69525,-0.004882813,0.69525,-70.54878,0.69525,31.34146,0.69525,-30.91463,0.08179411,0,0.69525,-0.8427734,0.69525,-0.2426758,0.69525,0.4311523,0.69525,-9.756098,0.69525,6.707317,0.69525,-12.68293,0.08179411,0,0.69525,-0.8662109,0.69525,-0.3530273,0.69525,-0.4897461,0.69525,21.82927,0.69525,30.79268,0.69525,5.060976,0.08179411,0,0.69525,-0.3046875,0.69525,-0.3950195,0.69525,0.8178711,0.69525,34.20732,0.69525,1.890244,0.69525,3.292683,0.08179411,0,0.69525,-0.02539063,0.69525,-0.9370117,0.69525,-0.5356445,0.69525,-2.134146,0.69525,18.90244,0.69525,12.19512,0.08179411,0,0.69525,0.1157227,0.69525,-0.9892578,0.69525,-0.2075195,0.69525,13.71951,0.69525,37.31707,0.69525,6.768293,0.08179411,0,0.69525,0.3144531,0.69525,-0.9711914,0.69525,-0.1708984,0.69525,-2.378049,0.69525,10.97561,0.69525,-30,0.1986429,1.477403,0.1986429,0.0318334,0.1986429,0.02098776,0.1986429,0.02253714,0.1986429,0,0.1986429,0,0.1986429,0,0.1986429,0,0.08179411,0,0.69525,-0.987793,0.69525,0.02490234,0.69525,-0.05810547,0.69525,0.4268293,0.69525,7.743903,0.69525,-9.207317,0.04635,0
0.054,0,0.702,-0.6167857,0.702,-0.3854911,0.702,-0.5396875,0.08258823,0,0.702,0.3486328,0.702,-0.7026367,0.702,0.06835938,0.702,-75.54878,0.702,29.14634,0.702,-32.56098,0.08258823,0,0.702,-0.8339844,0.702,-0.2758789,0.702,0.4248047,0.702,-11.58537,0.702,5.670732,0.702,-8.963415,0.08258823,0,0.702,-0.8642578,0.702,-0.3408203,0.702,-0.4926758,0.702,19.14634,0.702,28.59756,0.702,4.207317,0.08258823,0,0.702,-0.2426758,0.702,-0.3901367,0.702,0.8295898,0.702,33.29268,0.702,-3.170732,0.702,4.756098,0.08258823,0,0.702,-0.04541016,0.702,-0.9384766,0.702,-0.5288086,0.702,-2.621951,0.702,13.04878,0.702,10.48781,0.08258823,0,0.702,0.1181641,0.702,-0.9907227,0.702,-0.2070313,0.702,14.57317,0.702,32.5,0.702,5.487805,0.08258823,0,0.702,0.3276367,0.702,-0.9697266,0.702,-0.1621094,0.702,-1.890244,0.702,8.963415,0.702,-30.36585,0.2005714,1.477403,0.2005714,0.03028402,0.2005714,0.02098776,0.2005714,0.02253714,0.2005714,0,0.2005714,0,0.2005714,0,0.2005714,0,0.08258823,0,0.702,-0.9804688,0.702,0.01025391,0.702,-0.05419922,0.702,-3.902439,0.702,8.902439,0.702,-9.573171,0.0468,0
0.05451923,0,0.70875,-0.7324331,0.70875,-0.3854911,0.70875,-0.5011384,0.08338235,0,0.70875,0.2910156,0.70875,-0.793457,0.70875,0.1435547,0.70875,-77.37805,0.70875,25.30488,0.70875,-30.18293,0.08338235,0,0.70875,-0.8256836,0.70875,-0.3203125,0.70875,0.4106445,0.70875,-11.58537,0.70875,4.268293,0.70875,-5.182927,0.08338235,0,0.70875,-0.8632813,0.70875,-0.3359375,0.70875,-0.4833984,0.70875,16.76829,0.70875,26.46342,0.70875,3.841464,0.08338235,0,0.70875,-0.1899414,0.70875,-0.3818359,0.70875,0.8369141,0.70875,32.68293,0.70875,-2.926829,0.70875,4.390244,0.08338235,0,0.70875,-0.05175781,0.70875,-0.9370117,0.70875,-0.519043,0.70875,-2.926829,0.70875,10.30488,0.70875,9.573171,0.08338235,0,0.70875,0.125,0.70875,-0.9936523,0.70875,-0.1943359,0.70875,15.67073,0.70875,27.62195,0.70875,3.170732,0.08338235,0,0.70875,0.3330078,0.70875,-0.96875,0.70875,-0.1655273,0.70875,-1.768293,0.70875,7.378049,0.70875,-30.85366,0.2025,1.477403,0.2025,0.03028402,0.2025,0.02098776,0.2025,0.02253714,0.2025,0.3587521,0.2025,25.65389,0.2025,25.70347,0.2025,26.55563,0.08338235,0,0.70875,-0.9780273,0.70875,-0.01074219,0.70875,-0.04833984,0.70875,-7.743903,0.70875,10.36585,0.70875,-9.634147,0.04725,0
0.05503846,0,0.7155,-0.8480804,0.7155,-0.3854911,0.7155,-0.4240402,0.08417647,0,0.7155,0.1958008,0.7155,-0.8442383,0.7155,0.1762695,0.7155,-78.71951,0.7155,25.97561,0.7155,-22.2561,0.08417647,0,0.7155,-0.8134766,0.7155,-0.3691406,0.7155,0.3984375,0.7155,-9.146341,0.7155,3.597561,0.7155,-2.134146,0.08417647,0,0.7155,-0.8505859,0.7155,-0.3378906,0.7155,-0.4731445,0.7155,15.79268,0.7155,25.42683,0.7155,3.902439,0.08417647,0,0.7155,-0.1474609,0.7155,-0.3686523,0.7155,0.8359375,0.7155,31.34146,0.7155,-2.012195,0.7155,2.621951,0.08417647,0,0.7155,-0.04541016,0.7155,-0.9384766,0.7155,-0.5083008,0.7155,-3.170732,0.7155,5.792683,0.7155,7.804878,0.08417647,0,0.7155,0.1313477,0.7155,-0.9985352,0.7155,-0.1826172,0.7155,16.89024,0.7155,22.68293,0.7155,0.9146342,0.08417647,0,0.7155,0.3457031,0.7155,-0.9609375,0.7155,-0.1748047,0.7155,-1.280488,0.7155,4.695122,0.7155,-31.15854,0.2044286,1.480502,0.2044286,0.0318334,0.2044286,0.02098776,0.2044286,0.02253714,0.2044286,0.3695977,0.2044286,25.6415,0.2044286,25.74221,0.2044286,26.56183,0.08417647,0,0.7155,-0.9833984,0.7155,-0.04394531,0.7155,-0.04492188,0.7155,-11.09756,0.7155,11.46342,0.7155,-9.817074,0.0477,0
0.05555769,0,0.72225,-0.9637277,0.72225,-0.3854911,0.72225,-0.3854911,0.08497059,0,0.72225,0.08447266,0.72225,-0.8515625,0.72225,0.1738281,0.72225,-80.67073,0.72225,27.43903,0.72225,-10.97561,0.08497059,0,0.72225,-0.7963867,0.72225,-0.3969727,0.72225,0.3818359,0.72225,-4.634146,0.72225,4.817073,0.72225,-0.6707317,0.08497059,0,0.72225,-0.831543,0.72225,-0.340332,0.72225,-0.4726563,0.72225,13.78049,0.72225,23.04878,0.72225,4.329268,0.08497059,0,0.72225,-0.125,0.72225,-0.3618164,0.72225,0.8349609,0.72225,29.93903,0.72225,-3.658537,0.72225,0.06097561,0.08497059,0,0.72225,-0.02978516,0.72225,-0.9335938,0.72225,-0.4995117,0.72225,-3.292683,0.72225,2.682927,0.72225,5.792683,0.08497059,0,0.72225,0.1347656,0.72225,-0.996582,0.72225,-0.1767578,0.72225,17.68293,0.72225,17.92683,0.72225,-1.280488,0.08497059,0,0.72225,0.3525391,0.72225,-0.9570313,0.72225,-0.1757813,0.72225,-0.8536586,0.72225,3.109756,0.72225,-31.28049,0.2063572,1.480502,0.2063572,0.03028402,0.2063572,0.02253714,0.2063572,0.02253714,0.2063572,0.3711471,0.2063572,25.61671,0.2063572,25.77629,0.2063572,26.57112,0.08497059,0,0.72225,-0.9926758,0.72225,-0.07861328,0.72225,-0.04638672,0.72225,-13.53659,0.72225,12.37805,0.72225,-10,0.04815,0
0.05607693,0,0.729,-1.040826,0.729,-0.346942,0.729,-0.3083929,0.08576471,0,0.729,0.002441406,0.729,-0.8310547,0.729,0.1621094,0.729,-82.19512,0.729,21.09756,0.729,0.5487805,0.08576471,0,0.729,-0.7949219,0.729,-0.4106445,0.729,0.3666992,0.729,-2.5,0.729,5.731708,0.729,-0.3658537,0.08576471,0,0.729,-0.8208008,0.729,-0.34375,0.729,-0.4731445,0.729,10.73171,0.729,20.36585,0.729,4.45122,0.08576471,0,0.729,-0.1054688,0.729,-0.3549805,0.729,0.8203125,0.729,28.17073,0.729,-5.914634,0.729,-2.195122,0.08576471,0,0.729,-0.001953125,0.729,-0.9321289,0.729,-0.4941406,0.729,-3.658537,0.729,1.52439,0.729,4.329268,0.08576471,0,0.729,0.1362305,0.729,-0.9912109,0.729,-0.1777344,0.729,18.04878,0.729,15.36585,0.729,-2.378049,0.08576471,0,0.729,0.3520508,0.729,-0.9648438,0.729,-0.1777344,0.729,-0.3048781,0.729,2.073171,0.729,-31.21951,0.2082857,1.4836,0.2082857,0.0318334,0.2082857,0.02253714,0.2082857,0.02098776,0.2082857,0.3742459,0.2082857,25.60896,0.2082857,25.81038,0.2082857,26.58662,0.08576471,0,0.729,-1.012695,0.729,-0.1088867,0.729,-0.05126953,0.729,-15.12195,0.729,12.80488,0.729,-9.878049,0.0486,0
0.05659616,0,0.73575,-1.040826,0.73575,-0.346942,0.73575,-0.2698438,0.08655882,0,0.73575,-0.01171875,0.73575,-0.7978516,0.73575,0.1499023,0.73575,-82.56097,0.73575,6.402439,0.73575,10.06098,0.08655882,0,0.73575,-0.8056641,0.73575,-0.409668,0.73575,0.3618164,0.73575,0.9146342,0.73575,7.134147,0.73575,-0.6707317,0.08655882,0,0.73575,-0.8149414,0.73575,-0.3569336,0.73575,-0.4702148,0.73575,7.256098,0.73575,18.23171,0.73575,4.939024,0.08655882,0,0.73575,-0.08447266,0.73575,-0.3505859,0.73575,0.800293,0.73575,24.08537,0.73575,-5.54878,0.73575,-4.146341,0.08655882,0,0.73575,0.02490234,0.73575,-0.9404297,0.73575,-0.4887695,0.73575,-4.329268,0.73575,2.134146,0.73575,3.719512,0.08655882,0,0.73575,0.140625,0.73575,-0.9829102,0.73575,-0.1811523,0.73575,18.53658,0.73575,11.28049,0.73575,-4.45122,0.08655882,0,0.73575,0.3349609,0.73575,-0.9707031,0.73575,-0.1943359,0.73575,0.6097561,0.73575,-0.4878049,0.73575,-31.64634,0.2102143,1.48515,0.2102143,0.0318334,0.2102143,0.02253714,0.2102143,0.02253714,0.2102143,0.378894,0.2102143,25.62445,0.2102143,25.83982,0.2102143,26.61451,0.08655882,0,0.73575,-1.026367,0.73575,-0.1313477,0.73575,-0.04248047,0.73575,-15.85366,0.73575,13.04878,0.73575,-9.817074,0.04905,0
0.05711538,0,0.7425,-1.002277,0.7425,-0.3083929,0.7425,-0.2698438,0.08735294,0,0.7425,0.05615234,0.7425,-0.765625,0.7425,0.1606445,0.7425,-82.13415,0.7425,-12.31707,0.7425,16.52439,0.08735294,0,0.7425,-0.8222656,0.7425,-0.4155273,0.7425,0.3608398,0.7425,1.768293,0.7425,6.463415,0.7425,-0.7926829,0.08735294,0,0.7425,-0.8125,0.7425,-0.3754883,0.7425,-0.4692383,0.7425,4.878049,0.7425,17.80488,0.7425,5.487805,0.08735294,0,0.7425,-0.06884766,0.7425,-0.3500977,0.7425,0.8071289,0.7425,19.93902,0.7425,-2.621951,0.7425,-5.97561,0.08735294,0,0.7425,0.05175781,0.7425,-0.956543,0.7425,-0.480957,0.7425,-6.463415,0.7425,2.256098,0.7425,4.329268,0.08735294,0,0.7425,0.1484375,0.7425,-0.9799805,0.7425,-0.1923828,0.7425,19.14634,0.7425,6.219512,0.7425,-6.341464,0.08735294,0,0.7425,0.3251953,0.7425,-0.9741211,0.7425,-0.190918,0.7425,1.219512,0.7425,-2.682927,0.7425,-31.95122,0.2121429,1.48515,0.2121429,0.03028402,0.2121429,0.02098776,0.2121429,0.02098776,0.2121429,0.3850915,0.2121429,25.6446,0.2121429,25.877,0.2121429,26.63465,0.08735294,0,0.7425,-1.032227,0.7425,-0.1464844,0.7425,-0.02148438,0.7425,-15.54878,0.7425,12.92683,0.7425,-9.939025,0.0495,0
0.05763461,0,0.74925,-0.9637277,0.74925,-0.2698438,0.74925,-0.2312946,0.08814706,0,0.74925,0.1992188,0.74925,-0.7431641,0.74925,0.2045898,0.74925,-82.2561,0.74925,-21.76829,0.74925,18.90244,0.08814706,0,0.74925,-0.8212891,0.74925,-0.425293,0.74925,0.3632813,0.74925,0.7926829,0.74925,3.536585,0.74925,-1.646341,0.08814706,0,0.74925,-0.8056641,0.74925,-0.3955078,0.74925,-0.4663086,0.74925,3.719512,0.74925,18.04878,0.74925,6.768293,0.08814706,0,0.74925,-0.05126953,0.74925,-0.3564453,0.74925,0.815918,0.74925,17.37805,0.74925,0.2439024,0.74925,-7.5,0.08814706,0,0.74925,0.06201172,0.74925,-0.9604492,0.74925,-0.4741211,0.74925,-8.597561,0.74925,0.9756098,0.74925,5.792683,0.08814706,0,0.74925,0.1630859,0.74925,-0.9887695,0.74925,-0.1904297,0.74925,19.63415,0.74925,1.768293,0.74925,-7.743903,0.08814706,0,0.74925,0.3222656,0.74925,-0.9702148,0.74925,-0.1923828,0.74925,1.402439,0.74925,-5,0.74925,-32.19512,0.2140714,1.4836,0.2140714,0.0318334,0.2140714,0.02098776,0.2140714,0.02098776,0.2140714,0.3866409,0.2140714,25.66939,0.2140714,25.92039,0.2140714,26.65014,0.08814706,0,0.74925,-1.033691,0.74925,-0.1586914,0.74925,-0.005371094,0.74925,-14.5122,0.74925,12.37805,0.74925,-10.12195,0.04995,0
0.05815385,0,0.756,-0.9251786,0.756,-0.1927455,0.756,-0.2698438,0.08894117,0,0.756,0.3681641,0.756,-0.7333984,0.756,0.2680664,0.756,-84.45123,0.756,-37.7439,0.756,22.5,0.08894117,0,0.756,-0.8183594,0.756,-0.4326172,0.756,0.3647461,0.756,2.073171,0.756,2.317073,0.756,-3.292683,0.08894117,0,0.756,-0.7949219,0.756,-0.4228516,0.756,-0.4555664,0.756,3.109756,0.756,19.5122,0.756,8.231708,0.08894117,0,0.756,-0.03076172,0.756,-0.3632813,0.756,0.8129883,0.756,15.67073,0.756,2.926829,0.756,-8.47561,0.08894117,0,0.756,0.08398438,0.756,-0.9741211,0.756,-0.4672852,0.756,-9.817074,0.756,-1.341463,0.756,8.902439,0.08894117,0,0.756,0.1787109,0.756,-0.9863281,0.756,-0.175293,0.756,20,0.756,-2.012195,0.756,-8.902439,0.08894117,0,0.756,0.3417969,0.756,-0.9619141,0.756,-0.1816406,0.756,1.768293,0.756,-8.170732,0.756,-32.37805,0.216,1.480502,0.216,0.0318334,0.216,0.02253714,0.216,0.02253714,0.216,0.3897396,0.216,25.68798,0.216,25.96687,0.216,26.66099,0.08894117,0,0.756,-1.035156,0.756,-0.1533203,0.756,-0.005371094,0.756,-12.31707,0.756,10.36585,0.756,-10.79268,0.0504,0
0.05867308,0,0.76275,-0.9251786,0.76275,-0.1156473,0.76275,-0.2698438,0.08973529,0,0.76275,0.4492188,0.76275,-0.7314453,0.76275,0.2993164,0.76275,-87.68293,0.76275,-44.02439,0.76275,24.02439,0.08973529,0,0.76275,-0.8061523,0.76275,-0.4360352,0.76275,0.3530273,0.76275,6.341464,0.76275,2.621951,0.76275,-5.426829,0.08973529,0,0.76275,-0.7880859,0.76275,-0.4580078,0.76275,-0.4521484,0.76275,3.902439,0.76275,20.85366,0.76275,9.512196,0.08973529,0,0.76275,-0.02978516,0.76275,-0.3759766,0.76275,0.8251953,0.76275,14.26829,0.76275,6.707317,0.76275,-9.573171,0.08973529,0,0.76275,0.1147461,0.76275,-0.9760742,0.76275,-0.4526367,0.76275,-9.695122,0.76275,-3.902439,0.76275,12.68293,0.08973529,0,0.76275,0.199707,0.76275,-0.984375,0.76275,-0.1621094,0.76275,20.79268,0.76275,-5.182927,0.76275,-9.939025,0.08973529,0,0.76275,0.3505859,0.76275,-0.9604492,0.76275,-0.1791992,0.76275,2.256098,0.76275,-10.06098,0.76275,-32.31707,0.2179286,1.482051,0.2179286,0.0318334,0.2179286,0.02098776,0.2179286,0.02253714,0.2179286,0.391289,0.2179286,25.71897,0.2179286,25.99785,0.2179286,26.66099,0.08973529,0,0.76275,-1.036133,0.76275,-0.1445313,0.76275,-0.01904297,0.76275,-9.329268,0.76275,7.865854,0.76275,-11.70732,0.05085,0
